Participant_ID,File_Name,Session,List,Type_Trial,Trial_Nbr,Target,RT,Response_Trial,Comment,Date_Correction,Assessor_Name,Processed
62fb7,62fb7_session1_listb_naming_trial001_king.wav,1,b,naming,1,king,1249,correct,NA,Apr 27 2023 10:07:56,Agnieszka,1
62fb7,62fb7_session1_listb_naming_trial002_road.wav,1,b,naming,2,road,915,correct,NA,Apr 27 2023 10:08:04,Agnieszka,1
62fb7,62fb7_session1_listb_naming_trial003_sock.wav,1,b,naming,3,sock,952,correct,NA,Apr 27 2023 10:08:12,Agnieszka,1
62fb7,62fb7_session1_listb_naming_trial004_fist.wav,1,b,naming,4,fist,929,correct,NA,Apr 27 2023 10:08:21,Agnieszka,1
62fb7,62fb7_session1_listb_naming_trial005_skull.wav,1,b,naming,5,skull,779,correct,NA,Apr 27 2023 10:08:30,Agnieszka,1
62fb7,62fb7_session1_listb_naming_trial006_guitar.wav,1,b,naming,6,guitar,908,correct,NA,Apr 27 2023 10:08:44,Agnieszka,1
62fb7,62fb7_session1_listb_naming_trial007_hand.wav,1,b,naming,7,hand,850,correct,NA,Apr 27 2023 10:08:53,Agnieszka,1
62fb7,62fb7_session1_listb_naming_trial008_fire.wav,1,b,naming,8,fire,816,correct,NA,Apr 27 2023 10:09:03,Agnieszka,1
62fb7,62fb7_session1_listb_naming_trial009_spider.wav,1,b,naming,9,spider,813,correct,NA,Apr 27 2023 10:09:14,Agnieszka,1
62fb7,62fb7_session1_listb_naming_trial010_tooth.wav,1,b,naming,10,tooth,1065,correct,NA,Apr 27 2023 10:09:21,Agnieszka,1
62fb7,62fb7_session1_listb_naming_trial011_shadow.wav,1,b,naming,11,shadow,922,correct,NA,Apr 27 2023 10:09:29,Agnieszka,1
62fb7,62fb7_session1_listb_naming_trial012_parachute.wav,1,b,naming,12,parachute,-1,wrong_word,NA,Apr 27 2023 10:09:37,Agnieszka,1
62fb7,62fb7_session1_listb_naming_trial013_face.wav,1,b,naming,13,face,837,correct,NA,Apr 27 2023 10:09:44,Agnieszka,1
62fb7,62fb7_session1_listb_naming_trial014_caravan.wav,1,b,naming,14,caravan,823,correct,NA,Apr 27 2023 10:09:54,Agnieszka,1
62fb7,62fb7_session1_listb_naming_trial015_witch.wav,1,b,naming,15,witch,816,correct,NA,Apr 27 2023 10:10:02,Agnieszka,1
62fb7,62fb7_session1_listb_naming_trial016_pilot.wav,1,b,naming,16,pilot,857,correct,NA,Apr 27 2023 10:10:10,Agnieszka,1
62fb7,62fb7_session1_listb_naming_trial017_spoon.wav,1,b,naming,17,spoon,802,correct,NA,Apr 27 2023 10:10:17,Agnieszka,1
62fb7,62fb7_session1_listb_naming_trial018_feather.wav,1,b,naming,18,feather,758,correct,NA,Apr 27 2023 10:10:39,Agnieszka,1
62fb7,62fb7_session1_listb_naming_trial019_coffin.wav,1,b,naming,19,coffin,888,correct,NA,Apr 27 2023 10:10:53,Agnieszka,1
62fb7,62fb7_session1_listb_naming_trial020_bat.wav,1,b,naming,20,bat,922,correct,NA,Apr 27 2023 10:11:07,Agnieszka,1
62fb7,62fb7_session1_listb_naming_trial021_handle.wav,1,b,naming,21,handle,1021,correct,NA,Apr 27 2023 10:11:14,Agnieszka,1
62fb7,62fb7_session1_listb_naming_trial022_broccoli.wav,1,b,naming,22,broccoli,1007,correct,NA,Apr 27 2023 10:11:20,Agnieszka,1
62fb7,62fb7_session1_listb_naming_trial023_farm.wav,1,b,naming,23,farm,922,correct,NA,Apr 27 2023 10:11:28,Agnieszka,1
62fb7,62fb7_session1_listb_naming_trial024_boomerang.wav,1,b,naming,24,boomerang,1010,correct,NA,Apr 27 2023 10:11:36,Agnieszka,1
62fb7,62fb7_session1_listb_naming_trial025_dolphin.wav,1,b,naming,25,dolphin,901,correct,NA,Apr 27 2023 10:11:48,Agnieszka,1
62fb7,62fb7_session1_listb_naming_trial026_lemon.wav,1,b,naming,26,lemon,918,correct,NA,Apr 27 2023 10:11:57,Agnieszka,1
62fb7,62fb7_session1_listb_naming_trial027_man.wav,1,b,naming,27,man,840,correct,NA,Apr 27 2023 10:12:06,Agnieszka,1
62fb7,62fb7_session1_listb_naming_trial028_chain.wav,1,b,naming,28,chain,891,correct,NA,Apr 27 2023 10:12:18,Agnieszka,1
62fb7,62fb7_session1_listb_naming_trial029_door.wav,1,b,naming,29,door,935,correct,NA,Apr 27 2023 10:12:28,Agnieszka,1
62fb7,62fb7_session1_listb_naming_trial030_football.wav,1,b,naming,30,football,823,correct,NA,Apr 27 2023 10:12:40,Agnieszka,1
62fb7,62fb7_session1_listb_naming_trial031_cloud.wav,1,b,naming,31,cloud,925,correct,NA,Apr 27 2023 10:12:47,Agnieszka,1
62fb7,62fb7_session1_listb_naming_trial032_cannon.wav,1,b,naming,32,cannon,1010,correct,NA,Apr 27 2023 10:12:54,Agnieszka,1
62fb7,62fb7_session1_listb_naming_trial033_glasses.wav,1,b,naming,33,glasses,935,correct,NA,Apr 27 2023 10:13:03,Agnieszka,1
62fb7,62fb7_session1_listb_naming_trial034_moustache.wav,1,b,naming,34,moustache,1038,correct,NA,Apr 27 2023 10:13:12,Agnieszka,1
62fb7,62fb7_session1_listb_naming_trial035_baby.wav,1,b,naming,35,baby,983,correct,NA,Apr 27 2023 10:13:20,Agnieszka,1
62fb7,62fb7_session1_listb_naming_trial036_dentist.wav,1,b,naming,36,dentist,1208,correct,NA,Apr 27 2023 10:13:28,Agnieszka,1
62fb7,62fb7_session1_listb_naming_trial037_mirror.wav,1,b,naming,37,mirror,884,correct,NA,Apr 27 2023 10:14:00,Agnieszka,1
62fb7,62fb7_session1_listb_naming_trial038_nurse.wav,1,b,naming,38,nurse,-1,wrong_word,NA,Apr 27 2023 10:14:07,Agnieszka,1
62fb7,62fb7_session1_listb_naming_trial039_keyboard.wav,1,b,naming,39,keyboard,884,correct,NA,Apr 27 2023 10:14:16,Agnieszka,1
62fb7,62fb7_session1_listb_naming_trial040_foot.wav,1,b,naming,40,foot,779,correct,NA,Apr 27 2023 10:14:24,Agnieszka,1
62fb7,62fb7_session1_listb_naming_trial041_well.wav,1,b,naming,41,well,1201,correct,NA,Apr 27 2023 10:14:30,Agnieszka,1
62fb7,62fb7_session1_listb_naming_trial042_dragon.wav,1,b,naming,42,dragon,915,correct,NA,Apr 27 2023 10:14:38,Agnieszka,1
62fb7,62fb7_session1_listb_naming_trial043_wallet.wav,1,b,naming,43,wallet,1082,correct,NA,Apr 27 2023 10:14:46,Agnieszka,1
62fb7,62fb7_session1_listb_naming_trial044_glass.wav,1,b,naming,44,glass,942,correct,NA,Apr 27 2023 10:14:56,Agnieszka,1
62fb7,62fb7_session1_listb_naming_trial045_vein.wav,1,b,naming,45,vein,1004,correct,NA,Apr 27 2023 10:15:03,Agnieszka,1
62fb7,62fb7_session1_listb_naming_trial046_apron.wav,1,b,naming,46,apron,1051,correct,NA,Apr 27 2023 10:15:11,Agnieszka,1
62fb7,62fb7_session1_listb_naming_trial047_nose.wav,1,b,naming,47,nose,857,correct,NA,Apr 27 2023 10:15:18,Agnieszka,1
62fb7,62fb7_session1_listb_naming_trial048_banana.wav,1,b,naming,48,banana,871,correct,NA,Apr 27 2023 10:15:25,Agnieszka,1
62fb7,62fb7_session1_listb_naming_trial049_bra.wav,1,b,naming,49,bra,877,correct,NA,Apr 27 2023 10:15:32,Agnieszka,1
62fb7,62fb7_session1_listb_naming_trial050_jar.wav,1,b,naming,50,jar,905,correct,NA,Apr 27 2023 10:15:39,Agnieszka,1
62fb7,62fb7_session1_listb_naming_trial051_house.wav,1,b,naming,51,house,929,correct,NA,Apr 27 2023 10:15:49,Agnieszka,1
62fb7,62fb7_session1_listb_naming_trial052_dinosaur.wav,1,b,naming,52,dinosaur,1242,correct,NA,Apr 27 2023 10:15:56,Agnieszka,1
62fb7,62fb7_session1_listb_naming_trial053_back.wav,1,b,naming,53,back,1136,correct,NA,Apr 27 2023 10:16:04,Agnieszka,1
62fb7,62fb7_session1_listb_naming_trial054_dog.wav,1,b,naming,54,dog,1085,correct,NA,Apr 27 2023 10:16:11,Agnieszka,1
62fb7,62fb7_session1_listb_naming_trial055_heart.wav,1,b,naming,55,heart,813,correct,NA,Apr 27 2023 10:16:20,Agnieszka,1
62fb7,62fb7_session1_listb_naming_trial056_harp.wav,1,b,naming,56,harp,997,correct,NA,Apr 27 2023 10:16:27,Agnieszka,1
62fb7,62fb7_session1_listb_naming_trial057_volcano.wav,1,b,naming,57,volcano,1034,correct,NA,Apr 27 2023 10:16:44,Agnieszka,1
62fb7,62fb7_session1_listb_naming_trial058_butcher.wav,1,b,naming,58,butcher,1024,correct,NA,Apr 27 2023 10:16:51,Agnieszka,1
62fb7,62fb7_session1_listb_naming_trial059_tank.wav,1,b,naming,59,tank,993,correct,NA,Apr 27 2023 10:16:58,Agnieszka,1
62fb7,62fb7_session1_listb_naming_trial060_cactus.wav,1,b,naming,60,cactus,850,correct,NA,Apr 27 2023 10:17:07,Agnieszka,1
62fb7,62fb7_session1_listb_naming_trial061_snail.wav,1,b,naming,61,snail,789,correct,NA,Apr 27 2023 10:17:17,Agnieszka,1
62fb7,62fb7_session1_listb_naming_trial062_coconut.wav,1,b,naming,62,coconut,881,correct,NA,Apr 27 2023 10:17:27,Agnieszka,1
62fb7,62fb7_session1_listb_naming_trial063_finger.wav,1,b,naming,63,finger,1021,correct,NA,Apr 27 2023 10:17:35,Agnieszka,1
62fb7,62fb7_session1_listb_naming_trial064_brain.wav,1,b,naming,64,brain,929,correct,NA,Apr 27 2023 10:17:43,Agnieszka,1
62fb7,62fb7_session1_listb_naming_trial065_hedgehog.wav,1,b,naming,65,hedgehog,901,correct,NA,Apr 27 2023 10:17:50,Agnieszka,1
62fb7,62fb7_session1_listb_naming_trial066_shark.wav,1,b,naming,66,shark,1143,correct,NA,Apr 27 2023 10:17:58,Agnieszka,1
62fb7,62fb7_session1_listb_naming_trial067_fan.wav,1,b,naming,67,fan,912,correct,NA,Apr 27 2023 10:18:05,Agnieszka,1
62fb7,62fb7_session1_listb_naming_trial068_fruit.wav,1,b,naming,68,fruit,1041,correct,NA,Apr 27 2023 10:18:12,Agnieszka,1
62fb7,62fb7_session1_listb_naming_trial069_umbrella.wav,1,b,naming,69,umbrella,1058,correct,NA,Apr 27 2023 10:18:21,Agnieszka,1
62fb7,62fb7_session1_listb_naming_trial070_devil.wav,1,b,naming,70,devil,1051,correct,NA,Apr 27 2023 10:18:29,Agnieszka,1
62fb7,62fb7_session1_listb_naming_trial071_broom.wav,1,b,naming,71,broom,929,correct,NA,Apr 27 2023 10:18:37,Agnieszka,1
62fb7,62fb7_session1_listb_naming_trial072_desert.wav,1,b,naming,72,desert,1140,correct,NA,Apr 27 2023 10:18:45,Agnieszka,1
62fb7,62fb7_session1_listb_naming_trial073_camera.wav,1,b,naming,73,camera,946,correct,NA,Apr 27 2023 10:18:53,Agnieszka,1
62fb7,62fb7_session1_listb_naming_trial074_scarf.wav,1,b,naming,74,scarf,806,correct,NA,Apr 27 2023 10:19:00,Agnieszka,1
62fb7,62fb7_session1_listb_naming_trial075_sink.wav,1,b,naming,75,sink,857,correct,NA,Apr 27 2023 10:19:07,Agnieszka,1
62fb7,62fb7_session1_listb_naming_trial076_television.wav,1,b,naming,76,television,1055,correct,NA,Apr 27 2023 10:19:14,Agnieszka,1
62fb7,62fb7_session1_listb_naming_trial077_leaf.wav,1,b,naming,77,leaf,901,correct,NA,Apr 27 2023 10:19:24,Agnieszka,1
62fb7,62fb7_session1_listb_naming_trial078_lion.wav,1,b,naming,78,lion,925,correct,NA,Apr 27 2023 10:19:31,Agnieszka,1
62fb7,62fb7_session1_listb_naming_trial079_scarecrow.wav,1,b,naming,79,scarecrow,874,correct,NA,Apr 27 2023 10:19:37,Agnieszka,1
62fb7,62fb7_session1_listb_naming_trial080_greenhouse.wav,1,b,naming,80,greenhouse,1007,correct,NA,Apr 27 2023 10:19:45,Agnieszka,1
62fb7,62fb7_session1_listb_naming_trial081_bedroom.wav,1,b,naming,81,bedroom,1140,correct,NA,Apr 27 2023 10:19:53,Agnieszka,1
62fb7,62fb7_session1_listb_naming_trial082_condom.wav,1,b,naming,82,condom,942,correct,NA,Apr 27 2023 10:20:02,Agnieszka,1
62fb7,62fb7_session1_listb_naming_trial083_watch.wav,1,b,naming,83,watch,799,correct,NA,Apr 27 2023 10:20:09,Agnieszka,1
62fb7,62fb7_session1_listb_naming_trial084_nun.wav,1,b,naming,84,nun,1232,correct,NA,Apr 27 2023 10:20:17,Agnieszka,1
62fb7,62fb7_session1_listb_naming_trial085_lab.wav,1,b,naming,85,lab,1048,correct,NA,Apr 27 2023 10:20:24,Agnieszka,1
62fb7,62fb7_session1_listb_naming_trial086_printer.wav,1,b,naming,86,printer,963,correct,NA,Apr 27 2023 10:20:33,Agnieszka,1
62fb7,62fb7_session1_listb_naming_trial087_calculator.wav,1,b,naming,87,calculator,1004,correct,NA,Apr 27 2023 10:20:42,Agnieszka,1
62fb7,62fb7_session1_listb_naming_trial088_shirt.wav,1,b,naming,88,shirt,874,correct,NA,Apr 27 2023 10:20:49,Agnieszka,1
62fb7,62fb7_session1_listb_naming_trial089_diamond.wav,1,b,naming,89,diamond,874,correct,NA,Apr 27 2023 10:20:57,Agnieszka,1
62fb7,62fb7_session1_listb_naming_trial090_bin.wav,1,b,naming,90,bin,850,correct,NA,Apr 27 2023 10:21:04,Agnieszka,1
62fb7,62fb7_session1_listb_naming_trial091_belt.wav,1,b,naming,91,belt,891,correct,NA,Apr 27 2023 10:21:13,Agnieszka,1
62fb7,62fb7_session1_listb_naming_trial092_bible.wav,1,b,naming,92,bible,826,correct,NA,Apr 27 2023 10:21:20,Agnieszka,1
62fb7,62fb7_session1_listb_naming_trial093_giraffe.wav,1,b,naming,93,giraffe,779,correct,NA,Apr 27 2023 10:21:29,Agnieszka,1
62fb7,62fb7_session1_listb_naming_trial094_ring.wav,1,b,naming,94,ring,908,correct,NA,Apr 27 2023 10:21:36,Agnieszka,1
62fb7,62fb7_session1_listb_naming_trial095_mask.wav,1,b,naming,95,mask,922,correct,NA,Apr 27 2023 10:21:43,Agnieszka,1
62fb7,62fb7_session1_listb_naming_trial096_parrot.wav,1,b,naming,96,parrot,976,correct,NA,Apr 27 2023 10:21:53,Agnieszka,1
62fb7,62fb7_session1_listb_naming_trial097_chair.wav,1,b,naming,97,chair,820,correct,NA,Apr 27 2023 10:22:00,Agnieszka,1
62fb7,62fb7_session1_listb_naming_trial098_telephone.wav,1,b,naming,98,telephone,888,correct,NA,Apr 27 2023 10:22:07,Agnieszka,1
62fb7,62fb7_session1_listb_naming_trial099_trumpet.wav,1,b,naming,99,trumpet,901,correct,NA,Apr 27 2023 10:22:15,Agnieszka,1
62fb7,62fb7_session1_listb_naming_trial100_skateboard.wav,1,b,naming,100,skateboard,748,correct,NA,Apr 27 2023 10:22:22,Agnieszka,1
62fb7,62fb7_session1_listb_naming_trial101_cage.wav,1,b,naming,101,cage,1017,correct,NA,Apr 27 2023 10:22:29,Agnieszka,1
62fb7,62fb7_session1_listb_naming_trial102_iron.wav,1,b,naming,102,iron,901,correct,NA,Apr 27 2023 10:22:37,Agnieszka,1
62fb7,62fb7_session1_listb_naming_trial103_choir.wav,1,b,naming,103,choir,952,correct,NA,Apr 27 2023 10:22:43,Agnieszka,1
62fb7,62fb7_session1_listb_naming_trial104_earring.wav,1,b,naming,104,earring,1542,correct,NA,Apr 27 2023 10:22:54,Agnieszka,1
62fb7,62fb7_session1_listb_naming_trial105_cigarette.wav,1,b,naming,105,cigarette,973,correct,NA,Apr 27 2023 10:23:02,Agnieszka,1
62fb7,62fb7_session1_listb_naming_trial106_ankle.wav,1,b,naming,106,ankle,1065,correct,NA,Apr 27 2023 10:23:26,Agnieszka,1
62fb7,62fb7_session1_listb_naming_trial107_asparagus.wav,1,b,naming,107,asparagus,1078,correct,NA,Apr 27 2023 10:23:34,Agnieszka,1
62fb7,62fb7_session1_listb_naming_trial108_honey.wav,1,b,naming,108,honey,983,correct,NA,Apr 27 2023 10:23:41,Agnieszka,1
62fb7,62fb7_session1_listb_naming_trial109_eye.wav,1,b,naming,109,eye,1041,correct,NA,Apr 27 2023 10:23:49,Agnieszka,1
62fb7,62fb7_session1_listb_naming_trial110_waiter.wav,1,b,naming,110,waiter,1038,correct,NA,Apr 27 2023 10:23:56,Agnieszka,1
62fb7,62fb7_session1_listb_naming_trial111_balloon.wav,1,b,naming,111,balloon,877,correct,NA,Apr 27 2023 10:24:02,Agnieszka,1
62fb7,62fb7_session1_listb_naming_trial112_car.wav,1,b,naming,112,car,867,correct,NA,Apr 27 2023 10:24:11,Agnieszka,1
62fb7,62fb7_session1_listb_naming_trial113_pirate.wav,1,b,naming,113,pirate,973,correct,NA,Apr 27 2023 10:24:18,Agnieszka,1
62fb7,62fb7_session1_listb_naming_trial114_beard.wav,1,b,naming,114,beard,959,correct,NA,Apr 27 2023 10:24:25,Agnieszka,1
62fb7,62fb7_session1_listb_naming_trial115_microphone.wav,1,b,naming,115,microphone,888,correct,NA,Apr 27 2023 10:24:35,Agnieszka,1
62fb7,62fb7_session1_listb_naming_trial116_penguin.wav,1,b,naming,116,penguin,932,correct,NA,Apr 27 2023 10:24:45,Agnieszka,1
62fb7,62fb7_session1_listb_naming_trial117_roof.wav,1,b,naming,117,roof,1099,correct,NA,Apr 27 2023 10:24:52,Agnieszka,1
62fb7,62fb7_session1_listb_naming_trial118_coffee.wav,1,b,naming,118,coffee,1061,correct,NA,Apr 27 2023 10:24:58,Agnieszka,1
62fb7,62fb7_session1_listb_naming_trial119_pool.wav,1,b,naming,119,pool,952,correct,NA,Apr 27 2023 10:25:07,Agnieszka,1
62fb7,62fb7_session1_listb_naming_trial120_screwdriver.wav,1,b,naming,120,screwdriver,775,correct,NA,Apr 27 2023 10:25:15,Agnieszka,1
62fb7,62fb7_session1_listb_naming_trial121_ambulance.wav,1,b,naming,121,ambulance,956,correct,NA,Apr 27 2023 10:25:23,Agnieszka,1
62fb7,62fb7_session1_listb_naming_trial122_burger.wav,1,b,naming,122,burger,1228,correct,NA,Apr 27 2023 10:25:31,Agnieszka,1
62fb7,62fb7_session1_listb_naming_trial123_pumpkin.wav,1,b,naming,123,pumpkin,1102,correct,NA,Apr 27 2023 10:25:39,Agnieszka,1
62fb7,62fb7_session1_listb_naming_trial124_button.wav,1,b,naming,124,button,956,correct,NA,Apr 27 2023 10:25:47,Agnieszka,1
62fb7,62fb7_session1_listb_naming_trial125_thermometer.wav,1,b,naming,125,thermometer,1283,correct,NA,Apr 27 2023 10:25:56,Agnieszka,1
62fb7,62fb7_session1_listb_naming_trial126_bed.wav,1,b,naming,126,bed,1153,correct,NA,Apr 27 2023 10:26:05,Agnieszka,1
62fb7,62fb7_session1_listb_naming_trial127_egg.wav,1,b,naming,127,egg,1021,correct,NA,Apr 27 2023 10:26:11,Agnieszka,1
62fb7,62fb7_session1_listb_naming_trial128_calendar.wav,1,b,naming,128,calendar,1038,correct,NA,Apr 27 2023 10:26:18,Agnieszka,1
62fb7,62fb7_session1_listb_naming_trial129_stapler.wav,1,b,naming,129,stapler,830,correct,NA,Apr 27 2023 10:26:24,Agnieszka,1
62fb7,62fb7_session1_listb_naming_trial130_swimming.wav,1,b,naming,130,swimming,1031,correct,NA,Apr 27 2023 10:26:31,Agnieszka,1
62fb7,62fb7_session1_listb_naming_trial131_torch.wav,1,b,naming,131,torch,959,correct,NA,Apr 27 2023 10:26:46,Agnieszka,1
62fb7,62fb7_session1_listb_naming_trial132_needle.wav,1,b,naming,132,needle,860,correct,NA,Apr 27 2023 10:26:53,Agnieszka,1
62fb7,62fb7_session1_listb_naming_trial133_scorpion.wav,1,b,naming,133,scorpion,785,correct,NA,Apr 27 2023 10:27:03,Agnieszka,1
62fb7,62fb7_session1_listb_naming_trial134_skeleton.wav,1,b,naming,134,skeleton,802,correct,NA,Apr 27 2023 10:28:01,Agnieszka,1
62fb7,62fb7_session1_listb_naming_trial135_elephant.wav,1,b,naming,135,elephant,959,correct,NA,Apr 27 2023 10:28:10,Agnieszka,1
62fb7,62fb7_session1_listb_naming_trial136_duck.wav,1,b,naming,136,duck,1109,correct,NA,Apr 27 2023 10:28:20,Agnieszka,1
62fb7,62fb7_session1_listb_naming_trial137_pizza.wav,1,b,naming,137,pizza,854,correct,NA,Apr 27 2023 10:29:01,Agnieszka,1
62fb7,62fb7_session1_listb_naming_trial138_cowboy.wav,1,b,naming,138,cowboy,-1,wrong_word,NA,Apr 27 2023 10:29:09,Agnieszka,1
62fb7,62fb7_session1_listb_naming_trial139_lizard.wav,1,b,naming,139,lizard,1525,correct,NA,Apr 27 2023 10:29:17,Agnieszka,1
62fb7,62fb7_session1_listb_naming_trial140_girl.wav,1,b,naming,140,girl,1157,correct,NA,Apr 27 2023 10:29:28,Agnieszka,1
62fb7,62fb7_session1_listb_naming_trial141_maze.wav,1,b,naming,141,maze,1065,correct,NA,Apr 27 2023 10:29:38,Agnieszka,1
62fb7,62fb7_session1_listb_naming_trial142_airport.wav,1,b,naming,142,airport,1096,correct,NA,Apr 27 2023 10:29:45,Agnieszka,1
62fb7,62fb7_session1_listb_naming_trial143_strawberry.wav,1,b,naming,143,strawberry,864,correct,NA,Apr 27 2023 10:29:53,Agnieszka,1
62fb7,62fb7_session1_listb_naming_trial144_hair.wav,1,b,naming,144,hair,990,correct,NA,Apr 27 2023 10:29:59,Agnieszka,1
62fb7,62fb7_session1_listb_naming_trial145_cone.wav,1,b,naming,145,cone,952,correct,NA,Apr 27 2023 10:30:06,Agnieszka,1
62fb7,62fb7_session1_listb_naming_trial146_gun.wav,1,b,naming,146,gun,1021,correct,NA,Apr 27 2023 10:30:14,Agnieszka,1
62fb7,62fb7_session1_listb_naming_trial147_frog.wav,1,b,naming,147,frog,976,correct,NA,Apr 27 2023 10:30:21,Agnieszka,1
62fb7,62fb7_session1_listb_naming_trial148_sheep.wav,1,b,naming,148,sheep,854,correct,NA,Apr 27 2023 10:30:32,Agnieszka,1
62fb7,62fb7_session1_listb_naming_trial149_knee.wav,1,b,naming,149,knee,1041,correct,NA,Apr 27 2023 10:30:39,Agnieszka,1
62fb7,62fb7_session1_listb_naming_trial150_crown.wav,1,b,naming,150,crown,881,correct,NA,Apr 27 2023 10:30:47,Agnieszka,1
