Participant_ID,File_Name,Session,List,Type_Trial,Trial_Nbr,Target,RT,Response_Trial,Comment,Date_Correction,Assessor_Name,Processed
62fe1,62fe1_session1_listb_naming_trial001_house.wav,1,b,naming,1,house,1297,correct,NA,Apr 27 2023 11:08:55,Agnieszka,1
62fe1,62fe1_session1_listb_naming_trial002_calculator.wav,1,b,naming,2,calculator,792,correct,NA,Apr 27 2023 11:09:03,Agnieszka,1
62fe1,62fe1_session1_listb_naming_trial003_moustache.wav,1,b,naming,3,moustache,874,correct,NA,Apr 27 2023 11:09:09,Agnieszka,1
62fe1,62fe1_session1_listb_naming_trial004_road.wav,1,b,naming,4,road,1027,correct,NA,Apr 27 2023 11:09:18,Agnieszka,1
62fe1,62fe1_session1_listb_naming_trial005_cone.wav,1,b,naming,5,cone,1344,correct,NA,Apr 27 2023 11:09:26,Agnieszka,1
62fe1,62fe1_session1_listb_naming_trial006_handle.wav,1,b,naming,6,handle,-1,wrong_word,NA,Apr 27 2023 11:09:34,Agnieszka,1
62fe1,62fe1_session1_listb_naming_trial007_pizza.wav,1,b,naming,7,pizza,1368,correct,NA,Apr 27 2023 11:09:48,Agnieszka,1
62fe1,62fe1_session1_listb_naming_trial008_crown.wav,1,b,naming,8,crown,826,correct,NA,Apr 27 2023 11:09:58,Agnieszka,1
62fe1,62fe1_session1_listb_naming_trial009_lizard.wav,1,b,naming,9,lizard,840,correct,NA,Apr 27 2023 11:10:08,Agnieszka,1
62fe1,62fe1_session1_listb_naming_trial010_trumpet.wav,1,b,naming,10,trumpet,816,correct,NA,Apr 27 2023 11:10:18,Agnieszka,1
62fe1,62fe1_session1_listb_naming_trial011_nurse.wav,1,b,naming,11,nurse,-1,disfluency,NA,Apr 27 2023 11:10:23,Agnieszka,1
62fe1,62fe1_session1_listb_naming_trial012_calendar.wav,1,b,naming,12,calendar,1126,correct,NA,Apr 27 2023 11:10:31,Agnieszka,1
62fe1,62fe1_session1_listb_naming_trial013_brain.wav,1,b,naming,13,brain,1307,correct,NA,Apr 27 2023 11:10:38,Agnieszka,1
62fe1,62fe1_session1_listb_naming_trial014_television.wav,1,b,naming,14,television,-1,wrong_word,NA,Apr 27 2023 11:10:44,Agnieszka,1
62fe1,62fe1_session1_listb_naming_trial015_torch.wav,1,b,naming,15,torch,935,correct,NA,Apr 27 2023 11:10:55,Agnieszka,1
62fe1,62fe1_session1_listb_naming_trial016_snail.wav,1,b,naming,16,snail,843,correct,NA,Apr 27 2023 11:11:02,Agnieszka,1
62fe1,62fe1_session1_listb_naming_trial017_belt.wav,1,b,naming,17,belt,983,correct,NA,Apr 27 2023 11:11:14,Agnieszka,1
62fe1,62fe1_session1_listb_naming_trial018_cloud.wav,1,b,naming,18,cloud,833,correct,NA,Apr 27 2023 11:11:28,Agnieszka,1
62fe1,62fe1_session1_listb_naming_trial019_iron.wav,1,b,naming,19,iron,918,correct,NA,Apr 27 2023 11:11:37,Agnieszka,1
62fe1,62fe1_session1_listb_naming_trial020_lion.wav,1,b,naming,20,lion,874,correct,NA,Apr 27 2023 11:11:45,Agnieszka,1
62fe1,62fe1_session1_listb_naming_trial021_giraffe.wav,1,b,naming,21,giraffe,908,correct,NA,Apr 27 2023 11:11:53,Agnieszka,1
62fe1,62fe1_session1_listb_naming_trial022_sock.wav,1,b,naming,22,sock,837,correct,NA,Apr 27 2023 11:11:59,Agnieszka,1
62fe1,62fe1_session1_listb_naming_trial023_mask.wav,1,b,naming,23,mask,1113,correct,NA,Apr 27 2023 11:12:06,Agnieszka,1
62fe1,62fe1_session1_listb_naming_trial024_keyboard.wav,1,b,naming,24,keyboard,1215,correct,NA,Apr 27 2023 11:12:19,Agnieszka,1
62fe1,62fe1_session1_listb_naming_trial025_gun.wav,1,b,naming,25,gun,833,correct,NA,Apr 27 2023 11:12:36,Agnieszka,1
62fe1,62fe1_session1_listb_naming_trial026_glass.wav,1,b,naming,26,glass,877,correct,NA,Apr 27 2023 11:12:43,Agnieszka,1
62fe1,62fe1_session1_listb_naming_trial027_vein.wav,1,b,naming,27,vein,1835,correct,NA,Apr 27 2023 11:13:01,Agnieszka,1
62fe1,62fe1_session1_listb_naming_trial028_man.wav,1,b,naming,28,man,2138,correct,NA,Apr 27 2023 11:13:07,Agnieszka,1
62fe1,62fe1_session1_listb_naming_trial029_asparagus.wav,1,b,naming,29,asparagus,983,correct,NA,Apr 27 2023 11:13:23,Agnieszka,1
62fe1,62fe1_session1_listb_naming_trial030_ring.wav,1,b,naming,30,ring,956,correct,NA,Apr 27 2023 11:13:30,Agnieszka,1
62fe1,62fe1_session1_listb_naming_trial031_nun.wav,1,b,naming,31,nun,1160,correct,NA,Apr 27 2023 11:13:42,Agnieszka,1
62fe1,62fe1_session1_listb_naming_trial032_needle.wav,1,b,naming,32,needle,891,correct,NA,Apr 27 2023 11:13:48,Agnieszka,1
62fe1,62fe1_session1_listb_naming_trial033_feather.wav,1,b,naming,33,feather,850,correct,NA,Apr 27 2023 11:13:59,Agnieszka,1
62fe1,62fe1_session1_listb_naming_trial034_condom.wav,1,b,naming,34,condom,1061,correct,NA,Apr 27 2023 11:14:13,Agnieszka,1
62fe1,62fe1_session1_listb_naming_trial035_microphone.wav,1,b,naming,35,microphone,1320,correct,NA,Apr 27 2023 11:14:20,Agnieszka,1
62fe1,62fe1_session1_listb_naming_trial036_burger.wav,1,b,naming,36,burger,925,correct,NA,Apr 27 2023 11:14:30,Agnieszka,1
62fe1,62fe1_session1_listb_naming_trial037_mirror.wav,1,b,naming,37,mirror,813,correct,NA,Apr 27 2023 11:14:38,Agnieszka,1
62fe1,62fe1_session1_listb_naming_trial038_fist.wav,1,b,naming,38,fist,929,correct,NA,Apr 27 2023 11:14:57,Agnieszka,1
62fe1,62fe1_session1_listb_naming_trial039_penguin.wav,1,b,naming,39,penguin,813,correct,NA,Apr 27 2023 11:15:07,Agnieszka,1
62fe1,62fe1_session1_listb_naming_trial040_farm.wav,1,b,naming,40,farm,1021,correct,NA,Apr 27 2023 11:15:14,Agnieszka,1
62fe1,62fe1_session1_listb_naming_trial041_printer.wav,1,b,naming,41,printer,922,correct,NA,Apr 27 2023 11:15:26,Agnieszka,1
62fe1,62fe1_session1_listb_naming_trial042_butcher.wav,1,b,naming,42,butcher,1208,correct,NA,Apr 27 2023 11:15:52,Agnieszka,1
62fe1,62fe1_session1_listb_naming_trial043_finger.wav,1,b,naming,43,finger,1021,correct,NA,Apr 27 2023 11:16:02,Agnieszka,1
62fe1,62fe1_session1_listb_naming_trial044_football.wav,1,b,naming,44,football,908,correct,NA,Apr 27 2023 11:16:22,Agnieszka,1
62fe1,62fe1_session1_listb_naming_trial045_lemon.wav,1,b,naming,45,lemon,1099,correct,NA,Apr 27 2023 11:16:28,Agnieszka,1
62fe1,62fe1_session1_listb_naming_trial046_coffee.wav,1,b,naming,46,coffee,966,correct,NA,Apr 27 2023 11:16:36,Agnieszka,1
62fe1,62fe1_session1_listb_naming_trial047_coconut.wav,1,b,naming,47,coconut,918,correct,NA,Apr 27 2023 11:16:43,Agnieszka,1
62fe1,62fe1_session1_listb_naming_trial048_dragon.wav,1,b,naming,48,dragon,894,correct,NA,Apr 27 2023 11:16:49,Agnieszka,1
62fe1,62fe1_session1_listb_naming_trial049_coffin.wav,1,b,naming,49,coffin,816,correct,NA,Apr 27 2023 11:16:57,Agnieszka,1
62fe1,62fe1_session1_listb_naming_trial050_banana.wav,1,b,naming,50,banana,785,correct,NA,Apr 27 2023 11:17:05,Agnieszka,1
62fe1,62fe1_session1_listb_naming_trial051_bedroom.wav,1,b,naming,51,bedroom,1668,correct,NA,Apr 27 2023 11:17:13,Agnieszka,1
62fe1,62fe1_session1_listb_naming_trial052_ambulance.wav,1,b,naming,52,ambulance,1297,correct,NA,Apr 27 2023 11:17:20,Agnieszka,1
62fe1,62fe1_session1_listb_naming_trial053_heart.wav,1,b,naming,53,heart,780,correct,NA,Apr 27 2023 11:17:26,Agnieszka,1
62fe1,62fe1_session1_listb_naming_trial054_foot.wav,1,b,naming,54,foot,1228,correct,NA,Apr 27 2023 11:17:34,Agnieszka,1
62fe1,62fe1_session1_listb_naming_trial055_stapler.wav,1,b,naming,55,stapler,932,correct,NA,Apr 27 2023 11:17:41,Agnieszka,1
62fe1,62fe1_session1_listb_naming_trial056_fan.wav,1,b,naming,56,fan,884,correct,NA,Apr 27 2023 11:17:51,Agnieszka,1
62fe1,62fe1_session1_listb_naming_trial057_bat.wav,1,b,naming,57,bat,809,correct,NA,Apr 27 2023 11:17:59,Agnieszka,1
62fe1,62fe1_session1_listb_naming_trial058_pirate.wav,1,b,naming,58,pirate,942,correct,NA,Apr 27 2023 11:18:05,Agnieszka,1
62fe1,62fe1_session1_listb_naming_trial059_duck.wav,1,b,naming,59,duck,867,correct,NA,Apr 27 2023 11:18:14,Agnieszka,1
62fe1,62fe1_session1_listb_naming_trial060_well.wav,1,b,naming,60,well,1017,correct,NA,Apr 27 2023 11:18:22,Agnieszka,1
62fe1,62fe1_session1_listb_naming_trial061_balloon.wav,1,b,naming,61,balloon,826,correct,NA,Apr 27 2023 11:18:32,Agnieszka,1
62fe1,62fe1_session1_listb_naming_trial062_watch.wav,1,b,naming,62,watch,1290,correct,NA,Apr 27 2023 11:18:39,Agnieszka,1
62fe1,62fe1_session1_listb_naming_trial063_witch.wav,1,b,naming,63,witch,1078,correct,NA,Apr 27 2023 11:18:47,Agnieszka,1
62fe1,62fe1_session1_listb_naming_trial064_sink.wav,1,b,naming,64,sink,1423,correct,NA,Apr 27 2023 11:18:53,Agnieszka,1
62fe1,62fe1_session1_listb_naming_trial065_chain.wav,1,b,naming,65,chain,973,correct,NA,Apr 27 2023 11:19:00,Agnieszka,1
62fe1,62fe1_session1_listb_naming_trial066_chair.wav,1,b,naming,66,chair,1106,correct,NA,Apr 27 2023 11:19:08,Agnieszka,1
62fe1,62fe1_session1_listb_naming_trial067_wallet.wav,1,b,naming,67,wallet,1082,correct,NA,Apr 27 2023 11:19:16,Agnieszka,1
62fe1,62fe1_session1_listb_naming_trial068_cactus.wav,1,b,naming,68,cactus,833,correct,NA,Apr 27 2023 11:19:25,Agnieszka,1
62fe1,62fe1_session1_listb_naming_trial069_dog.wav,1,b,naming,69,dog,884,correct,NA,Apr 27 2023 11:19:31,Agnieszka,1
62fe1,62fe1_session1_listb_naming_trial070_fruit.wav,1,b,naming,70,fruit,850,correct,NA,Apr 27 2023 11:19:39,Agnieszka,1
62fe1,62fe1_session1_listb_naming_trial071_tooth.wav,1,b,naming,71,tooth,1072,correct,NA,Apr 27 2023 11:19:46,Agnieszka,1
62fe1,62fe1_session1_listb_naming_trial072_parachute.wav,1,b,naming,72,parachute,1194,correct,NA,Apr 27 2023 11:19:56,Agnieszka,1
62fe1,62fe1_session1_listb_naming_trial073_maze.wav,1,b,naming,73,maze,1876,correct,NA,Apr 27 2023 11:20:04,Agnieszka,1
62fe1,62fe1_session1_listb_naming_trial074_door.wav,1,b,naming,74,door,1092,correct,NA,Apr 27 2023 11:20:12,Agnieszka,1
62fe1,62fe1_session1_listb_naming_trial075_dentist.wav,1,b,naming,75,dentist,2090,correct,NA,Apr 27 2023 11:20:18,Agnieszka,1
62fe1,62fe1_session1_listb_naming_trial076_elephant.wav,1,b,naming,76,elephant,1225,correct,NA,Apr 27 2023 11:20:27,Agnieszka,1
62fe1,62fe1_session1_listb_naming_trial077_cannon.wav,1,b,naming,77,cannon,891,correct,NA,Apr 27 2023 11:20:34,Agnieszka,1
62fe1,62fe1_session1_listb_naming_trial078_scarecrow.wav,1,b,naming,78,scarecrow,762,correct,NA,Apr 27 2023 11:20:41,Agnieszka,1
62fe1,62fe1_session1_listb_naming_trial079_beard.wav,1,b,naming,79,beard,1136,correct,NA,Apr 27 2023 11:20:48,Agnieszka,1
62fe1,62fe1_session1_listb_naming_trial080_thermometer.wav,1,b,naming,80,thermometer,1188,correct,NA,Apr 27 2023 11:20:57,Agnieszka,1
62fe1,62fe1_session1_listb_naming_trial081_umbrella.wav,1,b,naming,81,umbrella,1184,correct,NA,Apr 27 2023 11:21:04,Agnieszka,1
62fe1,62fe1_session1_listb_naming_trial082_nose.wav,1,b,naming,82,nose,826,correct,NA,Apr 27 2023 11:21:11,Agnieszka,1
62fe1,62fe1_session1_listb_naming_trial083_hedgehog.wav,1,b,naming,83,hedgehog,768,correct,NA,Apr 27 2023 11:21:19,Agnieszka,1
62fe1,62fe1_session1_listb_naming_trial084_waiter.wav,1,b,naming,84,waiter,1191,correct,NA,Apr 27 2023 11:21:25,Agnieszka,1
62fe1,62fe1_session1_listb_naming_trial085_roof.wav,1,b,naming,85,roof,1348,correct,NA,Apr 27 2023 11:21:34,Agnieszka,1
62fe1,62fe1_session1_listb_naming_trial086_earring.wav,1,b,naming,86,earring,1082,correct,NA,Apr 27 2023 11:21:42,Agnieszka,1
62fe1,62fe1_session1_listb_naming_trial087_king.wav,1,b,naming,87,king,949,correct,NA,Apr 27 2023 11:22:00,Agnieszka,1
62fe1,62fe1_session1_listb_naming_trial088_knee.wav,1,b,naming,88,knee,1119,correct,NA,Apr 27 2023 11:22:11,Agnieszka,1
62fe1,62fe1_session1_listb_naming_trial089_broom.wav,1,b,naming,89,broom,1153,correct,NA,Apr 27 2023 11:22:21,Agnieszka,1
62fe1,62fe1_session1_listb_naming_trial090_desert.wav,1,b,naming,90,desert,1160,correct,NA,Apr 27 2023 11:22:28,Agnieszka,1
62fe1,62fe1_session1_listb_naming_trial091_parrot.wav,1,b,naming,91,parrot,1198,correct,NA,Apr 27 2023 11:22:36,Agnieszka,1
62fe1,62fe1_session1_listb_naming_trial092_hand.wav,1,b,naming,92,hand,918,correct,NA,Apr 27 2023 11:22:45,Agnieszka,1
62fe1,62fe1_session1_listb_naming_trial093_lab.wav,1,b,naming,93,lab,952,correct,NA,Apr 27 2023 11:22:51,Agnieszka,1
62fe1,62fe1_session1_listb_naming_trial094_car.wav,1,b,naming,94,car,956,correct,NA,Apr 27 2023 11:23:00,Agnieszka,1
62fe1,62fe1_session1_listb_naming_trial095_airport.wav,1,b,naming,95,airport,1368,correct,NA,Apr 27 2023 11:23:12,Agnieszka,1
62fe1,62fe1_session1_listb_naming_trial096_camera.wav,1,b,naming,96,camera,966,correct,NA,Apr 27 2023 11:23:19,Agnieszka,1
62fe1,62fe1_session1_listb_naming_trial097_baby.wav,1,b,naming,97,baby,1160,correct,NA,Apr 27 2023 11:23:27,Agnieszka,1
62fe1,62fe1_session1_listb_naming_trial098_swimming.wav,1,b,naming,98,swimming,-1,wrong_word,NA,Apr 27 2023 11:23:33,Agnieszka,1
62fe1,62fe1_session1_listb_naming_trial099_skeleton.wav,1,b,naming,99,skeleton,997,correct,NA,Apr 27 2023 11:23:40,Agnieszka,1
62fe1,62fe1_session1_listb_naming_trial100_leaf.wav,1,b,naming,100,leaf,1130,correct,NA,Apr 27 2023 11:23:47,Agnieszka,1
62fe1,62fe1_session1_listb_naming_trial101_spider.wav,1,b,naming,101,spider,881,correct,NA,Apr 27 2023 11:23:54,Agnieszka,1
62fe1,62fe1_session1_listb_naming_trial102_girl.wav,1,b,naming,102,girl,1164,correct,NA,Apr 27 2023 11:24:01,Agnieszka,1
62fe1,62fe1_session1_listb_naming_trial103_bed.wav,1,b,naming,103,bed,1106,correct,NA,Apr 27 2023 11:24:09,Agnieszka,1
62fe1,62fe1_session1_listb_naming_trial104_back.wav,1,b,naming,104,back,946,correct,NA,Apr 27 2023 11:24:16,Agnieszka,1
62fe1,62fe1_session1_listb_naming_trial105_telephone.wav,1,b,naming,105,telephone,2056,correct,NA,Apr 27 2023 11:24:25,Agnieszka,1
62fe1,62fe1_session1_listb_naming_trial106_glasses.wav,1,b,naming,106,glasses,1014,correct,NA,Apr 27 2023 11:24:33,Agnieszka,1
62fe1,62fe1_session1_listb_naming_trial107_spoon.wav,1,b,naming,107,spoon,751,correct,NA,Apr 27 2023 11:24:40,Agnieszka,1
62fe1,62fe1_session1_listb_naming_trial108_caravan.wav,1,b,naming,108,caravan,1613,correct,NA,Apr 27 2023 11:24:47,Agnieszka,1
62fe1,62fe1_session1_listb_naming_trial109_pumpkin.wav,1,b,naming,109,pumpkin,986,correct,NA,Apr 27 2023 11:24:54,Agnieszka,1
62fe1,62fe1_session1_listb_naming_trial110_pool.wav,1,b,naming,110,pool,1269,correct,NA,Apr 27 2023 11:25:01,Agnieszka,1
62fe1,62fe1_session1_listb_naming_trial111_bin.wav,1,b,naming,111,bin,983,correct,NA,Apr 27 2023 11:25:09,Agnieszka,1
62fe1,62fe1_session1_listb_naming_trial112_bible.wav,1,b,naming,112,bible,1157,correct,NA,Apr 27 2023 11:25:18,Agnieszka,1
62fe1,62fe1_session1_listb_naming_trial113_volcano.wav,1,b,naming,113,volcano,1055,correct,NA,Apr 27 2023 11:25:30,Agnieszka,1
62fe1,62fe1_session1_listb_naming_trial114_jar.wav,1,b,naming,114,jar,1119,correct,NA,Apr 27 2023 11:25:40,Agnieszka,1
62fe1,62fe1_session1_listb_naming_trial115_cigarette.wav,1,b,naming,115,cigarette,1174,correct,NA,Apr 27 2023 11:25:47,Agnieszka,1
62fe1,62fe1_session1_listb_naming_trial116_scorpion.wav,1,b,naming,116,scorpion,1092,correct,NA,Apr 27 2023 11:25:55,Agnieszka,1
62fe1,62fe1_session1_listb_naming_trial117_apron.wav,1,b,naming,117,apron,1092,correct,NA,Apr 27 2023 11:26:02,Agnieszka,1
62fe1,62fe1_session1_listb_naming_trial118_harp.wav,1,b,naming,118,harp,847,correct,NA,Apr 27 2023 11:26:10,Agnieszka,1
62fe1,62fe1_session1_listb_naming_trial119_screwdriver.wav,1,b,naming,119,screwdriver,1317,correct,NA,Apr 27 2023 11:26:16,Agnieszka,1
62fe1,62fe1_session1_listb_naming_trial120_face.wav,1,b,naming,120,face,1290,correct,NA,Apr 27 2023 11:26:22,Agnieszka,1
62fe1,62fe1_session1_listb_naming_trial121_egg.wav,1,b,naming,121,egg,932,correct,NA,Apr 27 2023 11:26:30,Agnieszka,1
62fe1,62fe1_session1_listb_naming_trial122_shadow.wav,1,b,naming,122,shadow,1116,correct,NA,Apr 27 2023 11:26:37,Agnieszka,1
62fe1,62fe1_session1_listb_naming_trial123_pilot.wav,1,b,naming,123,pilot,1235,correct,NA,Apr 27 2023 11:26:42,Agnieszka,1
62fe1,62fe1_session1_listb_naming_trial124_shark.wav,1,b,naming,124,shark,1157,correct,NA,Apr 27 2023 11:26:49,Agnieszka,1
62fe1,62fe1_session1_listb_naming_trial125_fire.wav,1,b,naming,125,fire,857,correct,NA,Apr 27 2023 11:27:03,Agnieszka,1
62fe1,62fe1_session1_listb_naming_trial126_cowboy.wav,1,b,naming,126,cowboy,1286,correct,NA,Apr 27 2023 11:27:10,Agnieszka,1
62fe1,62fe1_session1_listb_naming_trial127_choir.wav,1,b,naming,127,choir,1467,correct,NA,Apr 27 2023 11:27:17,Agnieszka,1
62fe1,62fe1_session1_listb_naming_trial128_frog.wav,1,b,naming,128,frog,959,correct,NA,Apr 27 2023 11:27:25,Agnieszka,1
62fe1,62fe1_session1_listb_naming_trial129_sheep.wav,1,b,naming,129,sheep,717,correct,NA,Apr 27 2023 11:27:32,Agnieszka,1
62fe1,62fe1_session1_listb_naming_trial130_skateboard.wav,1,b,naming,130,skateboard,874,correct,NA,Apr 27 2023 11:27:39,Agnieszka,1
62fe1,62fe1_session1_listb_naming_trial131_guitar.wav,1,b,naming,131,guitar,1702,correct,NA,Apr 27 2023 11:27:47,Agnieszka,1
62fe1,62fe1_session1_listb_naming_trial132_ankle.wav,1,b,naming,132,ankle,1256,correct,NA,Apr 27 2023 11:27:54,Agnieszka,1
62fe1,62fe1_session1_listb_naming_trial133_strawberry.wav,1,b,naming,133,strawberry,860,correct,NA,Apr 27 2023 11:28:01,Agnieszka,1
62fe1,62fe1_session1_listb_naming_trial134_scarf.wav,1,b,naming,134,scarf,1092,correct,NA,Apr 27 2023 11:28:10,Agnieszka,1
62fe1,62fe1_session1_listb_naming_trial135_broccoli.wav,1,b,naming,135,broccoli,980,correct,NA,Apr 27 2023 11:28:17,Agnieszka,1
62fe1,62fe1_session1_listb_naming_trial136_boomerang.wav,1,b,naming,136,boomerang,1228,correct,NA,Apr 27 2023 11:28:25,Agnieszka,1
62fe1,62fe1_session1_listb_naming_trial137_eye.wav,1,b,naming,137,eye,820,correct,NA,Apr 27 2023 11:28:33,Agnieszka,1
62fe1,62fe1_session1_listb_naming_trial138_greenhouse.wav,1,b,naming,138,greenhouse,1215,correct,NA,Apr 27 2023 11:28:41,Agnieszka,1
62fe1,62fe1_session1_listb_naming_trial139_hair.wav,1,b,naming,139,hair,1004,correct,NA,Apr 27 2023 11:28:52,Agnieszka,1
62fe1,62fe1_session1_listb_naming_trial140_dinosaur.wav,1,b,naming,140,dinosaur,1477,correct,NA,Apr 27 2023 11:28:58,Agnieszka,1
62fe1,62fe1_session1_listb_naming_trial141_dolphin.wav,1,b,naming,141,dolphin,1464,correct,NA,Apr 27 2023 11:29:07,Agnieszka,1
62fe1,62fe1_session1_listb_naming_trial142_button.wav,1,b,naming,142,button,1160,correct,NA,Apr 27 2023 11:29:12,Agnieszka,1
62fe1,62fe1_session1_listb_naming_trial143_honey.wav,1,b,naming,143,honey,874,correct,NA,Apr 27 2023 11:29:20,Agnieszka,1
62fe1,62fe1_session1_listb_naming_trial144_cage.wav,1,b,naming,144,cage,1136,correct,NA,Apr 27 2023 11:29:27,Agnieszka,1
62fe1,62fe1_session1_listb_naming_trial145_bra.wav,1,b,naming,145,bra,983,correct,NA,Apr 27 2023 11:29:35,Agnieszka,1
62fe1,62fe1_session1_listb_naming_trial146_shirt.wav,1,b,naming,146,shirt,912,correct,NA,Apr 27 2023 11:29:44,Agnieszka,1
62fe1,62fe1_session1_listb_naming_trial147_diamond.wav,1,b,naming,147,diamond,877,correct,NA,Apr 27 2023 11:29:53,Agnieszka,1
62fe1,62fe1_session1_listb_naming_trial148_devil.wav,1,b,naming,148,devil,768,correct,NA,Apr 27 2023 11:30:00,Agnieszka,1
62fe1,62fe1_session1_listb_naming_trial149_tank.wav,1,b,naming,149,tank,1409,correct,NA,Apr 27 2023 11:30:07,Agnieszka,1
62fe1,62fe1_session1_listb_naming_trial150_skull.wav,1,b,naming,150,skull,1041,correct,NA,Apr 27 2023 11:30:14,Agnieszka,1
