Participant_ID,File_Name,Session,List,Type_Trial,Trial_Nbr,Target,RT,Response_Trial,Comment,Date_Correction,Assessor_Name,Processed
62e25,62e25_session1_listb_naming_trial001_road.wav,1,b,naming,1,road,1600,correct,NA,May  6 2023 18:50:39,Doris,1
62e25,62e25_session1_listb_naming_trial002_king.wav,1,b,naming,2,king,1181,correct,NA,May  6 2023 18:51:05,Doris,1
62e25,62e25_session1_listb_naming_trial003_knee.wav,1,b,naming,3,knee,1610,correct,NA,May  6 2023 18:51:28,Doris,1
62e25,62e25_session1_listb_naming_trial004_door.wav,1,b,naming,4,door,922,correct,NA,May  6 2023 18:52:54,Doris,1
62e25,62e25_session1_listb_naming_trial005_elephant.wav,1,b,naming,5,elephant,848,correct,NA,May  6 2023 18:53:17,Doris,1
62e25,62e25_session1_listb_naming_trial006_spoon.wav,1,b,naming,6,spoon,894,correct,NA,May  6 2023 18:53:57,Doris,1
62e25,62e25_session1_listb_naming_trial007_butcher.wav,1,b,naming,7,butcher,1212,correct,NA,May  6 2023 18:54:22,Doris,1
62e25,62e25_session1_listb_naming_trial008_banana.wav,1,b,naming,8,banana,862,correct,NA,May  6 2023 19:13:46,Doris,1
62e25,62e25_session1_listb_naming_trial009_fist.wav,1,b,naming,9,fist,900,correct,NA,May  6 2023 19:14:34,Doris,1
62e25,62e25_session1_listb_naming_trial010_brain.wav,1,b,naming,10,brain,920,correct,NA,May  6 2023 19:15:16,Doris,1
62e25,62e25_session1_listb_naming_trial011_pilot.wav,1,b,naming,11,pilot,1046,correct,NA,May  6 2023 19:15:45,Doris,1
62e25,62e25_session1_listb_naming_trial012_fire.wav,1,b,naming,12,fire,800,correct,NA,May  6 2023 19:16:18,Doris,1
62e25,62e25_session1_listb_naming_trial013_scarf.wav,1,b,naming,13,scarf,786,correct,NA,May  6 2023 19:16:44,Doris,1
62e25,62e25_session1_listb_naming_trial014_cone.wav,1,b,naming,14,cone,-1,wrong_word,NA,May  6 2023 19:16:56,Doris,1
62e25,62e25_session1_listb_naming_trial015_chain.wav,1,b,naming,15,chain,832,correct,NA,May  6 2023 19:17:20,Doris,1
62e25,62e25_session1_listb_naming_trial016_greenhouse.wav,1,b,naming,16,greenhouse,1205,correct,NA,May  6 2023 19:17:48,Doris,1
62e25,62e25_session1_listb_naming_trial017_cage.wav,1,b,naming,17,cage,-1,wrong_word,NA,May  6 2023 19:17:55,Doris,1
62e25,62e25_session1_listb_naming_trial018_nurse.wav,1,b,naming,18,nurse,1381,correct,NA,May  6 2023 19:18:24,Doris,1
62e25,62e25_session1_listb_naming_trial019_dragon.wav,1,b,naming,19,dragon,807,correct,NA,May  6 2023 19:32:26,Doris,1
62e25,62e25_session1_listb_naming_trial020_face.wav,1,b,naming,20,face,801,correct,NA,May  6 2023 19:32:47,Doris,1
62e25,62e25_session1_listb_naming_trial021_cactus.wav,1,b,naming,21,cactus,855,correct,NA,May  6 2023 19:33:34,Doris,1
62e25,62e25_session1_listb_naming_trial022_baby.wav,1,b,naming,22,baby,854,correct,NA,May  6 2023 19:33:58,Doris,1
62e25,62e25_session1_listb_naming_trial023_stapler.wav,1,b,naming,23,stapler,835,correct,NA,May  6 2023 19:34:20,Doris,1
62e25,62e25_session1_listb_naming_trial024_choir.wav,1,b,naming,24,choir,962,correct,NA,May  6 2023 19:34:43,Doris,1
62e25,62e25_session1_listb_naming_trial025_beard.wav,1,b,naming,25,beard,978,correct,NA,May  6 2023 19:35:03,Doris,1
62e25,62e25_session1_listb_naming_trial026_mask.wav,1,b,naming,26,mask,857,correct,NA,May  6 2023 19:35:20,Doris,1
62e25,62e25_session1_listb_naming_trial027_penguin.wav,1,b,naming,27,penguin,768,correct,NA,May  6 2023 19:35:49,Doris,1
62e25,62e25_session1_listb_naming_trial028_back.wav,1,b,naming,28,back,1045,correct,NA,May  6 2023 19:36:09,Doris,1
62e25,62e25_session1_listb_naming_trial029_roof.wav,1,b,naming,29,roof,1248,correct,NA,May  6 2023 19:36:35,Doris,1
62e25,62e25_session1_listb_naming_trial030_cannon.wav,1,b,naming,30,cannon,-1,wrong_word,cannon ball,May  6 2023 19:36:49,Doris,1
62e25,62e25_session1_listb_naming_trial031_strawberry.wav,1,b,naming,31,strawberry,1369,correct,NA,May  6 2023 19:37:10,Doris,1
62e25,62e25_session1_listb_naming_trial032_chair.wav,1,b,naming,32,chair,706,correct,NA,May  6 2023 19:38:13,Doris,1
62e25,62e25_session1_listb_naming_trial033_shark.wav,1,b,naming,33,shark,1138,correct,NA,May  6 2023 19:38:41,Doris,1
62e25,62e25_session1_listb_naming_trial034_shirt.wav,1,b,naming,34,shirt,940,correct,NA,May  6 2023 19:39:01,Doris,1
62e25,62e25_session1_listb_naming_trial035_feather.wav,1,b,naming,35,feather,800,correct,NA,May  6 2023 19:39:21,Doris,1
62e25,62e25_session1_listb_naming_trial036_moustache.wav,1,b,naming,36,moustache,903,correct,NA,May  6 2023 19:39:44,Doris,1
62e25,62e25_session1_listb_naming_trial037_needle.wav,1,b,naming,37,needle,1402,correct,NA,May  6 2023 19:40:05,Doris,1
62e25,62e25_session1_listb_naming_trial038_farm.wav,1,b,naming,38,farm,-1,wrong_word,field,May  6 2023 19:40:18,Doris,1
62e25,62e25_session1_listb_naming_trial039_pool.wav,1,b,naming,39,pool,-1,wrong_word,swimming pool,May  6 2023 19:40:31,Doris,1
62e25,62e25_session1_listb_naming_trial040_belt.wav,1,b,naming,40,belt,947,correct,NA,May  6 2023 19:40:49,Doris,1
62e25,62e25_session1_listb_naming_trial041_burger.wav,1,b,naming,41,burger,975,correct,NA,May  6 2023 19:41:11,Doris,1
62e25,62e25_session1_listb_naming_trial042_dog.wav,1,b,naming,42,dog,892,correct,NA,May  6 2023 19:41:38,Doris,1
62e25,62e25_session1_listb_naming_trial043_well.wav,1,b,naming,43,well,1236,correct,NA,May  6 2023 19:42:09,Doris,1
62e25,62e25_session1_listb_naming_trial044_screwdriver.wav,1,b,naming,44,screwdriver,889,correct,NA,May  6 2023 19:42:36,Doris,1
62e25,62e25_session1_listb_naming_trial045_ankle.wav,1,b,naming,45,ankle,1517,correct,NA,May  6 2023 19:42:57,Doris,1
62e25,62e25_session1_listb_naming_trial046_airport.wav,1,b,naming,46,airport,1570,correct,NA,May  6 2023 19:43:17,Doris,1
62e25,62e25_session1_listb_naming_trial047_asparagus.wav,1,b,naming,47,asparagus,1450,correct,NA,May  6 2023 19:43:45,Doris,1
62e25,62e25_session1_listb_naming_trial048_egg.wav,1,b,naming,48,egg,1291,uncertain,"utters the correct word, however, it is followed by another word",May  6 2023 19:48:37,Doris,1
62e25,62e25_session1_listb_naming_trial049_dentist.wav,1,b,naming,49,dentist,1819,correct,NA,May  6 2023 19:51:08,Doris,1
62e25,62e25_session1_listb_naming_trial050_shadow.wav,1,b,naming,50,shadow,1644,correct,NA,May  6 2023 19:54:19,Doris,1
62e25,62e25_session1_listb_naming_trial051_balloon.wav,1,b,naming,51,balloon,868,correct,NA,May  6 2023 19:54:47,Doris,1
62e25,62e25_session1_listb_naming_trial052_bedroom.wav,1,b,naming,52,bedroom,1432,correct,NA,May  6 2023 19:57:27,Doris,1
62e25,62e25_session1_listb_naming_trial053_duck.wav,1,b,naming,53,duck,1800,correct,NA,May  6 2023 19:58:21,Doris,1
62e25,62e25_session1_listb_naming_trial054_pumpkin.wav,1,b,naming,54,pumpkin,881,correct,NA,May  6 2023 19:58:37,Doris,1
62e25,62e25_session1_listb_naming_trial055_waiter.wav,1,b,naming,55,waiter,981,correct,NA,May  6 2023 19:59:16,Doris,1
62e25,62e25_session1_listb_naming_trial056_condom.wav,1,b,naming,56,condom,-1,no_resp,NA,May  6 2023 19:59:29,Doris,1
62e25,62e25_session1_listb_naming_trial057_cowboy.wav,1,b,naming,57,cowboy,884,correct,NA,May  6 2023 19:59:44,Doris,1
62e25,62e25_session1_listb_naming_trial058_thermometer.wav,1,b,naming,58,thermometer,-1,wrong_word,"thermostat",May  6 2023 19:59:56,Doris,1
62e25,62e25_session1_listb_naming_trial059_torch.wav,1,b,naming,59,torch,1003,correct,NA,May  6 2023 20:00:26,Doris,1
62e25,62e25_session1_listb_naming_trial060_sink.wav,1,b,naming,60,sink,832,correct,NA,May  6 2023 20:00:40,Doris,1
62e25,62e25_session1_listb_naming_trial061_spider.wav,1,b,naming,61,spider,924,correct,NA,May  6 2023 20:01:12,Doris,1
62e25,62e25_session1_listb_naming_trial062_coconut.wav,1,b,naming,62,coconut,1253,correct,NA,May  6 2023 20:02:15,Doris,1
62e25,62e25_session1_listb_naming_trial063_caravan.wav,1,b,naming,63,caravan,890,correct,NA,May  6 2023 20:02:30,Doris,1
62e25,62e25_session1_listb_naming_trial064_bed.wav,1,b,naming,64,bed,925,correct,NA,May  6 2023 20:02:50,Doris,1
62e25,62e25_session1_listb_naming_trial065_watch.wav,1,b,naming,65,watch,941,correct,NA,May  6 2023 20:03:17,Doris,1
62e25,62e25_session1_listb_naming_trial066_earring.wav,1,b,naming,66,earring,1459,correct,NA,May  6 2023 20:03:31,Doris,1
62e25,62e25_session1_listb_naming_trial067_house.wav,1,b,naming,67,house,843,correct,NA,May  6 2023 20:03:51,Doris,1
62e25,62e25_session1_listb_naming_trial068_pizza.wav,1,b,naming,68,pizza,782,correct,NA,May  6 2023 20:04:53,Doris,1
62e25,62e25_session1_listb_naming_trial069_skateboard.wav,1,b,naming,69,skateboard,1000,correct,NA,May  6 2023 20:05:21,Doris,1
62e25,62e25_session1_listb_naming_trial070_maze.wav,1,b,naming,70,maze,1234,correct,NA,May  6 2023 20:05:50,Doris,1
62e25,62e25_session1_listb_naming_trial071_finger.wav,1,b,naming,71,finger,-1,uncertain,"response "finger, index finger"",May  6 2023 20:06:10,Doris,1
62e25,62e25_session1_listb_naming_trial072_bible.wav,1,b,naming,72,bible,1096,correct,NA,May  6 2023 20:07:37,Doris,1
62e25,62e25_session1_listb_naming_trial073_trumpet.wav,1,b,naming,73,trumpet,1871,correct,NA,May  6 2023 20:08:20,Doris,1
62e25,62e25_session1_listb_naming_trial074_apron.wav,1,b,naming,74,apron,1741,correct,NA,May  6 2023 20:08:42,Doris,1
62e25,62e25_session1_listb_naming_trial075_bat.wav,1,b,naming,75,bat,983,correct,NA,May  6 2023 20:09:00,Doris,1
62e25,62e25_session1_listb_naming_trial076_broccoli.wav,1,b,naming,76,broccoli,837,correct,NA,May  6 2023 20:09:21,Doris,1
62e25,62e25_session1_listb_naming_trial077_camera.wav,1,b,naming,77,camera,911,correct,NA,May  6 2023 20:09:46,Doris,1
62e25,62e25_session1_listb_naming_trial078_lizard.wav,1,b,naming,78,lizard,-1,wrong_word,"salamander",May  6 2023 20:09:59,Doris,1
62e25,62e25_session1_listb_naming_trial079_heart.wav,1,b,naming,79,heart,-1,wrong_word,"love heart",May  6 2023 20:10:12,Doris,1
62e25,62e25_session1_listb_naming_trial080_glasses.wav,1,b,naming,80,glasses,818,correct,NA,May  6 2023 20:10:37,Doris,1
62e25,62e25_session1_listb_naming_trial081_handle.wav,1,b,naming,81,handle,-1,wrong_word,"hand handle",May  6 2023 20:10:53,Doris,1
62e25,62e25_session1_listb_naming_trial082_lemon.wav,1,b,naming,82,lemon,957,correct,NA,May  6 2023 20:11:08,Doris,1
62e25,62e25_session1_listb_naming_trial083_skull.wav,1,b,naming,83,skull,912,correct,NA,May  6 2023 20:11:39,Doris,1
62e25,62e25_session1_listb_naming_trial084_foot.wav,1,b,naming,84,foot,792,correct,NA,May  6 2023 20:11:57,Doris,1
62e25,62e25_session1_listb_naming_trial085_sheep.wav,1,b,naming,85,sheep,879,correct,NA,May  6 2023 20:12:11,Doris,1
62e25,62e25_session1_listb_naming_trial086_fan.wav,1,b,naming,86,fan,874,correct,NA,May  6 2023 20:12:31,Doris,1
62e25,62e25_session1_listb_naming_trial087_frog.wav,1,b,naming,87,frog,996,correct,NA,May  6 2023 20:12:52,Doris,1
62e25,62e25_session1_listb_naming_trial088_nose.wav,1,b,naming,88,nose,828,correct,NA,May  6 2023 20:13:15,Doris,1
62e25,62e25_session1_listb_naming_trial089_broom.wav,1,b,naming,89,broom,883,correct,NA,May  6 2023 20:13:32,Doris,1
62e25,62e25_session1_listb_naming_trial090_scorpion.wav,1,b,naming,90,scorpion,1424,correct,NA,May  6 2023 20:14:06,Doris,1
62e25,62e25_session1_listb_naming_trial091_keyboard.wav,1,b,naming,91,keyboard,1028,correct,NA,May  6 2023 20:14:22,Doris,1
62e25,62e25_session1_listb_naming_trial092_volcano.wav,1,b,naming,92,volcano,1761,correct,NA,May  6 2023 20:14:43,Doris,1
62e25,62e25_session1_listb_naming_trial093_bra.wav,1,b,naming,93,bra,841,correct,NA,May  6 2023 20:15:01,Doris,1
62e25,62e25_session1_listb_naming_trial094_nun.wav,1,b,naming,94,nun,882,correct,NA,May  6 2023 20:15:30,Doris,1
62e25,62e25_session1_listb_naming_trial095_button.wav,1,b,naming,95,button,-1,no_resp,NA,May  6 2023 20:15:40,Doris,1
62e25,62e25_session1_listb_naming_trial096_diamond.wav,1,b,naming,96,diamond,912,correct,NA,May  6 2023 20:16:02,Doris,1
62e25,62e25_session1_listb_naming_trial097_parachute.wav,1,b,naming,97,parachute,1372,correct,NA,May  6 2023 20:17:21,Doris,1
62e25,62e25_session1_listb_naming_trial098_girl.wav,1,b,naming,98,girl,852,correct,NA,May  6 2023 20:18:35,Doris,1
62e25,62e25_session1_listb_naming_trial099_boomerang.wav,1,b,naming,99,boomerang,926,correct,NA,May  6 2023 20:19:54,Doris,1
62e25,62e25_session1_listb_naming_trial100_ring.wav,1,b,naming,100,ring,919,correct,NA,May  6 2023 20:20:27,Doris,1
62e25,62e25_session1_listb_naming_trial101_man.wav,1,b,naming,101,man,761,correct,NA,May  6 2023 20:20:47,Doris,1
62e25,62e25_session1_listb_naming_trial102_giraffe.wav,1,b,naming,102,giraffe,942,correct,NA,May  6 2023 20:21:00,Doris,1
62e25,62e25_session1_listb_naming_trial103_vein.wav,1,b,naming,103,vein,-1,wrong_word,"arm vein",May  6 2023 20:21:12,Doris,1
62e25,62e25_session1_listb_naming_trial104_dinosaur.wav,1,b,naming,104,dinosaur,1050,correct,NA,May  6 2023 20:21:35,Doris,1
62e25,62e25_session1_listb_naming_trial105_iron.wav,1,b,naming,105,iron,963,correct,NA,May  6 2023 20:21:54,Doris,1
62e25,62e25_session1_listb_naming_trial106_parrot.wav,1,b,naming,106,parrot,929,correct,NA,May  6 2023 20:22:17,Doris,1
62e25,62e25_session1_listb_naming_trial107_gun.wav,1,b,naming,107,gun,829,correct,NA,May  6 2023 20:22:45,Doris,1
62e25,62e25_session1_listb_naming_trial108_telephone.wav,1,b,naming,108,telephone,778,correct,NA,May  6 2023 20:23:05,Doris,1
62e25,62e25_session1_listb_naming_trial109_hand.wav,1,b,naming,109,hand,751,correct,NA,May  6 2023 20:24:02,Doris,1
62e25,62e25_session1_listb_naming_trial110_skeleton.wav,1,b,naming,110,skeleton,741,correct,NA,May  6 2023 20:24:21,Doris,1
62e25,62e25_session1_listb_naming_trial111_honey.wav,1,b,naming,111,honey,921,correct,NA,May  6 2023 20:24:57,Doris,1
62e25,62e25_session1_listb_naming_trial112_hedgehog.wav,1,b,naming,112,hedgehog,793,correct,NA,May  6 2023 20:25:16,Doris,1
62e25,62e25_session1_listb_naming_trial113_swimming.wav,1,b,naming,113,swimming,976,correct,NA,May  6 2023 20:25:43,Doris,1
62e25,62e25_session1_listb_naming_trial114_bin.wav,1,b,naming,114,bin,915,correct,NA,May  6 2023 20:26:07,Doris,1
62e25,62e25_session1_listb_naming_trial115_microphone.wav,1,b,naming,115,microphone,986,correct,NA,May  6 2023 20:26:21,Doris,1
62e25,62e25_session1_listb_naming_trial116_fruit.wav,1,b,naming,116,fruit,921,correct,NA,May  6 2023 20:26:42,Doris,1
62e25,62e25_session1_listb_naming_trial117_jar.wav,1,b,naming,117,jar,1051,correct,NA,May  6 2023 20:27:12,Doris,1
62e25,62e25_session1_listb_naming_trial118_leaf.wav,1,b,naming,118,leaf,-1,wrong_word,"lettuce",May  6 2023 20:27:23,Doris,1
62e25,62e25_session1_listb_naming_trial119_sock.wav,1,b,naming,119,sock,725,correct,NA,May  6 2023 20:27:44,Doris,1
62e25,62e25_session1_listb_naming_trial120_lab.wav,1,b,naming,120,lab,-1,wrong_word,"workspace",May  6 2023 20:27:58,Doris,1
62e25,62e25_session1_listb_naming_trial121_tooth.wav,1,b,naming,121,tooth,1114,correct,NA,May  6 2023 20:28:14,Doris,1
62e25,62e25_session1_listb_naming_trial122_wallet.wav,1,b,naming,122,wallet,814,correct,NA,May  6 2023 20:28:33,Doris,1
62e25,62e25_session1_listb_naming_trial123_cigarette.wav,1,b,naming,123,cigarette,897,correct,NA,May  6 2023 20:28:51,Doris,1
62e25,62e25_session1_listb_naming_trial124_printer.wav,1,b,naming,124,printer,1241,correct,NA,May  6 2023 20:29:30,Doris,1
62e25,62e25_session1_listb_naming_trial125_mirror.wav,1,b,naming,125,mirror,803,correct,NA,May  6 2023 20:29:45,Doris,1
62e25,62e25_session1_listb_naming_trial126_hair.wav,1,b,naming,126,hair,803,correct,NA,May  6 2023 20:30:00,Doris,1
62e25,62e25_session1_listb_naming_trial127_television.wav,1,b,naming,127,television,-1,wrong_word,"old fashioned television",May  6 2023 20:30:17,Doris,1
62e25,62e25_session1_listb_naming_trial128_cloud.wav,1,b,naming,128,cloud,973,correct,NA,May  6 2023 20:30:32,Doris,1
62e25,62e25_session1_listb_naming_trial129_witch.wav,1,b,naming,129,witch,940,correct,NA,May  6 2023 20:30:45,Doris,1
62e25,62e25_session1_listb_naming_trial130_tank.wav,1,b,naming,130,tank,761,correct,NA,May  6 2023 20:31:01,Doris,1
62e25,62e25_session1_listb_naming_trial131_glass.wav,1,b,naming,131,glass,-1,wrong_word,"empty glass",May  6 2023 20:31:11,Doris,1
62e25,62e25_session1_listb_naming_trial132_pirate.wav,1,b,naming,132,pirate,1075,correct,NA,May  6 2023 20:31:38,Doris,1
62e25,62e25_session1_listb_naming_trial133_harp.wav,1,b,naming,133,harp,996,correct,NA,May  6 2023 20:32:10,Doris,1
62e25,62e25_session1_listb_naming_trial134_dolphin.wav,1,b,naming,134,dolphin,1070,correct,NA,May  6 2023 20:32:26,Doris,1
62e25,62e25_session1_listb_naming_trial135_football.wav,1,b,naming,135,football,743,correct,NA,May  6 2023 20:32:51,Doris,1
62e25,62e25_session1_listb_naming_trial136_eye.wav,1,b,naming,136,eye,924,correct,NA,May  6 2023 20:33:08,Doris,1
62e25,62e25_session1_listb_naming_trial137_car.wav,1,b,naming,137,car,715,correct,NA,May  6 2023 20:33:22,Doris,1
62e25,62e25_session1_listb_naming_trial138_calendar.wav,1,b,naming,138,calendar,906,correct,NA,May  6 2023 20:36:16,Doris,1
62e25,62e25_session1_listb_naming_trial139_guitar.wav,1,b,naming,139,guitar,903,correct,NA,May  6 2023 20:36:34,Doris,1
62e25,62e25_session1_listb_naming_trial140_snail.wav,1,b,naming,140,snail,1071,correct,NA,May  6 2023 20:36:54,Doris,1
62e25,62e25_session1_listb_naming_trial141_coffin.wav,1,b,naming,141,coffin,1218,correct,NA,May  6 2023 20:37:11,Doris,1
62e25,62e25_session1_listb_naming_trial142_umbrella.wav,1,b,naming,142,umbrella,788,correct,NA,May  6 2023 20:37:29,Doris,1
62e25,62e25_session1_listb_naming_trial143_desert.wav,1,b,naming,143,desert,1294,correct,NA,May  6 2023 20:37:47,Doris,1
62e25,62e25_session1_listb_naming_trial144_calculator.wav,1,b,naming,144,calculator,809,correct,NA,May  6 2023 20:38:01,Doris,1
62e25,62e25_session1_listb_naming_trial145_coffee.wav,1,b,naming,145,coffee,-1,uncertain,"coffee and coffee beans",May  6 2023 20:38:20,Doris,1
62e25,62e25_session1_listb_naming_trial146_devil.wav,1,b,naming,146,devil,1106,correct,NA,May  6 2023 20:38:37,Doris,1
62e25,62e25_session1_listb_naming_trial147_lion.wav,1,b,naming,147,lion,841,correct,NA,May  6 2023 20:38:55,Doris,1
62e25,62e25_session1_listb_naming_trial148_scarecrow.wav,1,b,naming,148,scarecrow,1104,correct,NA,May  6 2023 20:39:27,Doris,1
62e25,62e25_session1_listb_naming_trial149_crown.wav,1,b,naming,149,crown,993,correct,NA,May  6 2023 20:39:43,Doris,1
62e25,62e25_session1_listb_naming_trial150_ambulance.wav,1,b,naming,150,ambulance,1638,correct,NA,May  6 2023 20:40:29,Doris,1
