Participant_ID,File_Name,Session,List,Type_Trial,Trial_Nbr,Target,RT,Response_Trial,Comment,Date_Correction,Assessor_Name,Processed
60de3,60de3_session1_listb_naming_trial001_microphone.wav,1,b,naming,1,microphone,-1,disfluency,NA,Apr 27 2023 17:14:18,Radhika,1
60de3,60de3_session1_listb_naming_trial002_fist.wav,1,b,naming,2,fist,-1,disfluency,NA,Apr 27 2023 17:14:32,Radhika,1
60de3,60de3_session1_listb_naming_trial003_mask.wav,1,b,naming,3,mask,871,correct,NA,Apr 27 2023 17:14:59,Radhika,1
60de3,60de3_session1_listb_naming_trial004_stapler.wav,1,b,naming,4,stapler,758,correct,NA,Apr 27 2023 17:15:23,Radhika,1
60de3,60de3_session1_listb_naming_trial005_nurse.wav,1,b,naming,5,nurse,748,correct,NA,Apr 27 2023 17:15:36,Radhika,1
60de3,60de3_session1_listb_naming_trial006_girl.wav,1,b,naming,6,girl,917,correct,NA,Apr 27 2023 17:15:51,Radhika,1
60de3,60de3_session1_listb_naming_trial007_nun.wav,1,b,naming,7,nun,847,correct,NA,Apr 27 2023 17:16:08,Radhika,1
60de3,60de3_session1_listb_naming_trial008_earring.wav,1,b,naming,8,earring,916,correct,NA,Apr 27 2023 17:16:47,Radhika,1
60de3,60de3_session1_listb_naming_trial009_screwdriver.wav,1,b,naming,9,screwdriver,976,correct,NA,Apr 27 2023 17:17:22,Radhika,1
60de3,60de3_session1_listb_naming_trial010_sink.wav,1,b,naming,10,sink,1069,correct,NA,Apr 27 2023 17:17:42,Radhika,1
60de3,60de3_session1_listb_naming_trial011_waiter.wav,1,b,naming,11,waiter,900,correct,NA,Apr 27 2023 17:17:55,Radhika,1
60de3,60de3_session1_listb_naming_trial012_calculator.wav,1,b,naming,12,calculator,1006,correct,NA,Apr 27 2023 17:18:39,Radhika,1
60de3,60de3_session1_listb_naming_trial013_moustache.wav,1,b,naming,13,moustache,954,correct,NA,Apr 27 2023 17:19:23,Radhika,1
60de3,60de3_session1_listb_naming_trial014_knee.wav,1,b,naming,14,knee,-1,uncertain,NA,Apr 27 2023 17:19:58,Radhika,1
60de3,60de3_session1_listb_naming_trial015_chain.wav,1,b,naming,15,chain,-1,uncertain,NA,Apr 27 2023 17:20:01,Radhika,1
60de3,60de3_session1_listb_naming_trial016_trumpet.wav,1,b,naming,16,trumpet,933,correct,NA,Apr 27 2023 17:20:45,Radhika,1
60de3,60de3_session1_listb_naming_trial017_lion.wav,1,b,naming,17,lion,923,correct,NA,Apr 27 2023 17:21:00,Radhika,1
60de3,60de3_session1_listb_naming_trial018_choir.wav,1,b,naming,18,choir,1090,correct,NA,Apr 27 2023 17:22:00,Radhika,1
60de3,60de3_session1_listb_naming_trial019_harp.wav,1,b,naming,19,harp,825,correct,NA,Apr 27 2023 17:22:57,Radhika,1
60de3,60de3_session1_listb_naming_trial020_door.wav,1,b,naming,20,door,986,correct,NA,Apr 27 2023 17:23:20,Radhika,1
60de3,60de3_session1_listb_naming_trial021_man.wav,1,b,naming,21,man,970,correct,NA,Apr 27 2023 17:23:48,Radhika,1
60de3,60de3_session1_listb_naming_trial022_coffin.wav,1,b,naming,22,coffin,968,correct,NA,Apr 27 2023 17:24:09,Radhika,1
60de3,60de3_session1_listb_naming_trial023_ambulance.wav,1,b,naming,23,ambulance,910,correct,NA,Apr 27 2023 17:24:55,Radhika,1
60de3,60de3_session1_listb_naming_trial024_finger.wav,1,b,naming,24,finger,996,correct,NA,Apr 27 2023 17:25:43,Radhika,1
60de3,60de3_session1_listb_naming_trial025_skateboard.wav,1,b,naming,25,skateboard,875,correct,NA,Apr 27 2023 17:26:18,Radhika,1
60de3,60de3_session1_listb_naming_trial026_dolphin.wav,1,b,naming,26,dolphin,950,correct,NA,Apr 27 2023 17:33:14,Radhika,1
60de3,60de3_session1_listb_naming_trial027_penguin.wav,1,b,naming,27,penguin,784,correct,NA,Apr 27 2023 17:33:40,Radhika,1
60de3,60de3_session1_listb_naming_trial028_swimming.wav,1,b,naming,28,swimming,926,correct,NA,Apr 27 2023 17:34:15,Radhika,1
60de3,60de3_session1_listb_naming_trial029_baby.wav,1,b,naming,29,baby,946,correct,NA,Apr 27 2023 17:34:27,Radhika,1
60de3,60de3_session1_listb_naming_trial030_guitar.wav,1,b,naming,30,guitar,941,correct,NA,Apr 27 2023 17:35:12,Radhika,1
60de3,60de3_session1_listb_naming_trial031_brain.wav,1,b,naming,31,brain,1015,correct,NA,Apr 27 2023 17:35:30,Radhika,1
60de3,60de3_session1_listb_naming_trial032_pirate.wav,1,b,naming,32,pirate,921,correct,NA,Apr 27 2023 17:36:06,Radhika,1
60de3,60de3_session1_listb_naming_trial033_dinosaur.wav,1,b,naming,33,dinosaur,964,correct,NA,Apr 27 2023 17:37:08,Radhika,1
60de3,60de3_session1_listb_naming_trial034_hair.wav,1,b,naming,34,hair,860,correct,NA,Apr 27 2023 17:37:27,Radhika,1
60de3,60de3_session1_listb_naming_trial035_shadow.wav,1,b,naming,35,shadow,890,correct,NA,Apr 27 2023 17:38:13,Radhika,1
60de3,60de3_session1_listb_naming_trial036_lizard.wav,1,b,naming,36,lizard,1051,correct,NA,Apr 27 2023 17:38:39,Radhika,1
60de3,60de3_session1_listb_naming_trial037_egg.wav,1,b,naming,37,egg,987,correct,NA,Apr 27 2023 17:39:01,Radhika,1
60de3,60de3_session1_listb_naming_trial038_asparagus.wav,1,b,naming,38,asparagus,956,correct,NA,Apr 27 2023 17:39:35,Radhika,1
60de3,60de3_session1_listb_naming_trial039_nose.wav,1,b,naming,39,nose,920,correct,NA,Apr 27 2023 17:39:47,Radhika,1
60de3,60de3_session1_listb_naming_trial040_burger.wav,1,b,naming,40,burger,996,correct,NA,Apr 27 2023 17:40:01,Radhika,1
60de3,60de3_session1_listb_naming_trial041_beard.wav,1,b,naming,41,beard,1018,correct,NA,Apr 27 2023 17:40:33,Radhika,1
60de3,60de3_session1_listb_naming_trial042_torch.wav,1,b,naming,42,torch,1042,correct,NA,Apr 27 2023 17:40:53,Radhika,1
60de3,60de3_session1_listb_naming_trial043_chair.wav,1,b,naming,43,chair,939,correct,NA,Apr 27 2023 17:41:44,Radhika,1
60de3,60de3_session1_listb_naming_trial044_car.wav,1,b,naming,44,car,864,correct,NA,Apr 27 2023 17:42:19,Radhika,1
60de3,60de3_session1_listb_naming_trial045_tank.wav,1,b,naming,45,tank,1011,correct,NA,Apr 27 2023 17:42:44,Radhika,1
60de3,60de3_session1_listb_naming_trial046_cowboy.wav,1,b,naming,46,cowboy,1289,correct,NA,Apr 27 2023 17:43:08,Radhika,1
60de3,60de3_session1_listb_naming_trial047_apron.wav,1,b,naming,47,apron,985,correct,NA,Apr 27 2023 17:43:25,Radhika,1
60de3,60de3_session1_listb_naming_trial048_parachute.wav,1,b,naming,48,parachute,1115,correct,NA,Apr 27 2023 17:43:44,Radhika,1
60de3,60de3_session1_listb_naming_trial049_broom.wav,1,b,naming,49,broom,889,correct,NA,Apr 27 2023 17:44:03,Radhika,1
60de3,60de3_session1_listb_naming_trial050_cigarette.wav,1,b,naming,50,cigarette,932,correct,NA,Apr 27 2023 17:44:27,Radhika,1
60de3,60de3_session1_listb_naming_trial051_bat.wav,1,b,naming,51,bat,857,correct,NA,Apr 27 2023 18:12:34,Radhika,1
60de3,60de3_session1_listb_naming_trial052_scarf.wav,1,b,naming,52,scarf,763,correct,NA,Apr 27 2023 18:13:26,Radhika,1
60de3,60de3_session1_listb_naming_trial053_shirt.wav,1,b,naming,53,shirt,870,correct,NA,Apr 27 2023 18:13:40,Radhika,1
60de3,60de3_session1_listb_naming_trial054_hand.wav,1,b,naming,54,hand,805,correct,NA,Apr 27 2023 18:14:05,Radhika,1
60de3,60de3_session1_listb_naming_trial055_elephant.wav,1,b,naming,55,elephant,958,correct,NA,Apr 27 2023 18:14:46,Radhika,1
60de3,60de3_session1_listb_naming_trial056_pool.wav,1,b,naming,56,pool,1334,correct,NA,Apr 27 2023 18:14:59,Radhika,1
60de3,60de3_session1_listb_naming_trial057_spoon.wav,1,b,naming,57,spoon,821,correct,NA,Apr 27 2023 18:15:29,Radhika,1
60de3,60de3_session1_listb_naming_trial058_dentist.wav,1,b,naming,58,dentist,909,correct,NA,Apr 27 2023 18:15:46,Radhika,1
60de3,60de3_session1_listb_naming_trial059_maze.wav,1,b,naming,59,maze,-1,uncertain,NA,Apr 27 2023 18:16:00,Radhika,1
60de3,60de3_session1_listb_naming_trial060_caravan.wav,1,b,naming,60,caravan,1140,correct,NA,Apr 27 2023 18:16:28,Radhika,1
60de3,60de3_session1_listb_naming_trial061_dog.wav,1,b,naming,61,dog,962,correct,NA,Apr 27 2023 18:16:43,Radhika,1
60de3,60de3_session1_listb_naming_trial062_diamond.wav,1,b,naming,62,diamond,894,correct,NA,Apr 27 2023 18:16:57,Radhika,1
60de3,60de3_session1_listb_naming_trial063_heart.wav,1,b,naming,63,heart,901,correct,NA,Apr 27 2023 18:17:29,Radhika,1
60de3,60de3_session1_listb_naming_trial064_cage.wav,1,b,naming,64,cage,1098,correct,NA,Apr 27 2023 18:18:29,Radhika,1
60de3,60de3_session1_listb_naming_trial065_button.wav,1,b,naming,65,button,844,correct,NA,Apr 27 2023 18:18:45,Radhika,1
60de3,60de3_session1_listb_naming_trial066_printer.wav,1,b,naming,66,printer,1280,correct,NA,Apr 27 2023 18:19:18,Radhika,1
60de3,60de3_session1_listb_naming_trial067_coconut.wav,1,b,naming,67,coconut,1099,correct,NA,Apr 27 2023 18:19:59,Radhika,1
60de3,60de3_session1_listb_naming_trial068_back.wav,1,b,naming,68,back,912,correct,NA,Apr 27 2023 18:20:13,Radhika,1
60de3,60de3_session1_listb_naming_trial069_keyboard.wav,1,b,naming,69,keyboard,872,correct,NA,Apr 27 2023 18:20:40,Radhika,1
60de3,60de3_session1_listb_naming_trial070_duck.wav,1,b,naming,70,duck,966,correct,NA,Apr 27 2023 18:20:52,Radhika,1
60de3,60de3_session1_listb_naming_trial071_hedgehog.wav,1,b,naming,71,hedgehog,869,correct,NA,Apr 27 2023 18:21:38,Radhika,1
60de3,60de3_session1_listb_naming_trial072_king.wav,1,b,naming,72,king,857,correct,NA,Apr 27 2023 18:21:57,Radhika,1
60de3,60de3_session1_listb_naming_trial073_giraffe.wav,1,b,naming,73,giraffe,832,correct,NA,Apr 27 2023 18:22:42,Radhika,1
60de3,60de3_session1_listb_naming_trial074_frog.wav,1,b,naming,74,frog,850,correct,NA,Apr 27 2023 18:23:23,Radhika,1
60de3,60de3_session1_listb_naming_trial075_cactus.wav,1,b,naming,75,cactus,824,correct,NA,Apr 27 2023 18:23:48,Radhika,1
60de3,60de3_session1_listb_naming_trial076_foot.wav,1,b,naming,76,foot,939,correct,NA,Apr 27 2023 18:24:46,Radhika,1
60de3,60de3_session1_listb_naming_trial077_jar.wav,1,b,naming,77,jar,897,correct,NA,Apr 27 2023 18:25:06,Radhika,1
60de3,60de3_session1_listb_naming_trial078_shark.wav,1,b,naming,78,shark,998,correct,NA,Apr 27 2023 18:25:29,Radhika,1
60de3,60de3_session1_listb_naming_trial079_honey.wav,1,b,naming,79,honey,855,correct,NA,Apr 27 2023 18:26:07,Radhika,1
60de3,60de3_session1_listb_naming_trial080_broccoli.wav,1,b,naming,80,broccoli,926,correct,NA,Apr 27 2023 18:26:18,Radhika,1
60de3,60de3_session1_listb_naming_trial081_fire.wav,1,b,naming,81,fire,802,correct,NA,Apr 27 2023 18:26:51,Radhika,1
60de3,60de3_session1_listb_naming_trial082_house.wav,1,b,naming,82,house,957,correct,NA,Apr 27 2023 18:27:18,Radhika,1
60de3,60de3_session1_listb_naming_trial083_cloud.wav,1,b,naming,83,cloud,985,correct,NA,Apr 27 2023 21:18:55,Radhika,1
60de3,60de3_session1_listb_naming_trial084_bible.wav,1,b,naming,84,bible,1033,correct,NA,Apr 27 2023 21:19:12,Radhika,1
60de3,60de3_session1_listb_naming_trial085_leaf.wav,1,b,naming,85,leaf,1014,correct,NA,Apr 27 2023 21:19:23,Radhika,1
60de3,60de3_session1_listb_naming_trial086_needle.wav,1,b,naming,86,needle,884,correct,NA,Apr 27 2023 21:19:35,Radhika,1
60de3,60de3_session1_listb_naming_trial087_vein.wav,1,b,naming,87,vein,1045,correct,NA,Apr 27 2023 21:20:01,Radhika,1
60de3,60de3_session1_listb_naming_trial088_roof.wav,1,b,naming,88,roof,948,correct,NA,Apr 27 2023 21:20:11,Radhika,1
60de3,60de3_session1_listb_naming_trial089_parrot.wav,1,b,naming,89,parrot,1028,correct,NA,Apr 27 2023 21:20:41,Radhika,1
60de3,60de3_session1_listb_naming_trial090_pumpkin.wav,1,b,naming,90,pumpkin,931,correct,NA,Apr 27 2023 21:21:12,Radhika,1
60de3,60de3_session1_listb_naming_trial091_ankle.wav,1,b,naming,91,ankle,956,correct,NA,Apr 27 2023 21:21:26,Radhika,1
60de3,60de3_session1_listb_naming_trial092_fan.wav,1,b,naming,92,fan,821,correct,NA,Apr 27 2023 21:21:56,Radhika,1
60de3,60de3_session1_listb_naming_trial093_bra.wav,1,b,naming,93,bra,933,correct,NA,Apr 27 2023 21:22:07,Radhika,1
60de3,60de3_session1_listb_naming_trial094_lab.wav,1,b,naming,94,lab,952,correct,NA,Apr 27 2023 21:22:19,Radhika,1
60de3,60de3_session1_listb_naming_trial095_football.wav,1,b,naming,95,football,919,correct,NA,Apr 27 2023 21:22:54,Radhika,1
60de3,60de3_session1_listb_naming_trial096_glasses.wav,1,b,naming,96,glasses,832,correct,NA,Apr 27 2023 21:23:18,Radhika,1
60de3,60de3_session1_listb_naming_trial097_belt.wav,1,b,naming,97,belt,902,correct,NA,Apr 27 2023 21:23:38,Radhika,1
60de3,60de3_session1_listb_naming_trial098_strawberry.wav,1,b,naming,98,strawberry,716,correct,NA,Apr 27 2023 21:24:16,Radhika,1
60de3,60de3_session1_listb_naming_trial099_cone.wav,1,b,naming,99,cone,1322,correct,NA,Apr 27 2023 21:24:53,Radhika,1
60de3,60de3_session1_listb_naming_trial100_devil.wav,1,b,naming,100,devil,977,correct,NA,Apr 27 2023 21:25:07,Radhika,1
60de3,60de3_session1_listb_naming_trial101_iron.wav,1,b,naming,101,iron,852,correct,NA,Apr 27 2023 21:25:50,Radhika,1
60de3,60de3_session1_listb_naming_trial102_mirror.wav,1,b,naming,102,mirror,805,correct,NA,Apr 27 2023 21:26:02,Radhika,1
60de3,60de3_session1_listb_naming_trial103_tooth.wav,1,b,naming,103,tooth,963,correct,NA,Apr 27 2023 21:26:37,Radhika,1
60de3,60de3_session1_listb_naming_trial104_well.wav,1,b,naming,104,well,857,correct,NA,Apr 27 2023 21:26:47,Radhika,1
60de3,60de3_session1_listb_naming_trial105_dragon.wav,1,b,naming,105,dragon,824,correct,NA,Apr 27 2023 21:27:08,Radhika,1
60de3,60de3_session1_listb_naming_trial106_road.wav,1,b,naming,106,road,767,correct,NA,Apr 27 2023 21:27:21,Radhika,1
60de3,60de3_session1_listb_naming_trial107_television.wav,1,b,naming,107,television,-1,no_resp,NA,Apr 27 2023 21:27:26,Radhika,1
60de3,60de3_session1_listb_naming_trial108_bin.wav,1,b,naming,108,bin,996,correct,NA,Apr 27 2023 21:27:37,Radhika,1
60de3,60de3_session1_listb_naming_trial109_calendar.wav,1,b,naming,109,calendar,952,correct,NA,Apr 27 2023 21:27:55,Radhika,1
60de3,60de3_session1_listb_naming_trial110_handle.wav,1,b,naming,110,handle,944,correct,NA,Apr 27 2023 21:28:25,Radhika,1
60de3,60de3_session1_listb_naming_trial111_sheep.wav,1,b,naming,111,sheep,759,correct,NA,Apr 27 2023 21:28:50,Radhika,1
60de3,60de3_session1_listb_naming_trial112_snail.wav,1,b,naming,112,snail,862,correct,NA,Apr 27 2023 21:29:41,Radhika,1
60de3,60de3_session1_listb_naming_trial113_witch.wav,1,b,naming,113,witch,941,correct,NA,Apr 27 2023 21:29:55,Radhika,1
60de3,60de3_session1_listb_naming_trial114_feather.wav,1,b,naming,114,feather,980,correct,NA,Apr 27 2023 21:30:40,Radhika,1
60de3,60de3_session1_listb_naming_trial115_balloon.wav,1,b,naming,115,balloon,863,correct,NA,Apr 27 2023 21:30:50,Radhika,1
60de3,60de3_session1_listb_naming_trial116_pilot.wav,1,b,naming,116,pilot,1037,correct,NA,Apr 27 2023 21:31:53,Radhika,1
60de3,60de3_session1_listb_naming_trial117_crown.wav,1,b,naming,117,crown,944,correct,NA,Apr 27 2023 21:32:16,Radhika,1
60de3,60de3_session1_listb_naming_trial118_butcher.wav,1,b,naming,118,butcher,927,correct,NA,Apr 27 2023 21:32:31,Radhika,1
60de3,60de3_session1_listb_naming_trial119_coffee.wav,1,b,naming,119,coffee,1067,correct,NA,Apr 27 2023 21:33:00,Radhika,1
60de3,60de3_session1_listb_naming_trial120_face.wav,1,b,naming,120,face,780,correct,NA,Apr 27 2023 21:33:42,Radhika,1
60de3,60de3_session1_listb_naming_trial121_eye.wav,1,b,naming,121,eye,790,correct,NA,Apr 27 2023 21:33:56,Radhika,1
60de3,60de3_session1_listb_naming_trial122_condom.wav,1,b,naming,122,condom,883,correct,NA,Apr 27 2023 21:34:18,Radhika,1
60de3,60de3_session1_listb_naming_trial123_telephone.wav,1,b,naming,123,telephone,1164,correct,NA,Apr 27 2023 21:34:38,Radhika,1
60de3,60de3_session1_listb_naming_trial124_pizza.wav,1,b,naming,124,pizza,909,correct,NA,Apr 27 2023 21:34:51,Radhika,1
60de3,60de3_session1_listb_naming_trial125_spider.wav,1,b,naming,125,spider,866,correct,NA,Apr 27 2023 21:35:09,Radhika,1
60de3,60de3_session1_listb_naming_trial126_glass.wav,1,b,naming,126,glass,1191,correct,NA,Apr 27 2023 21:35:32,Radhika,1
60de3,60de3_session1_listb_naming_trial127_sock.wav,1,b,naming,127,sock,861,correct,NA,Apr 27 2023 21:36:50,Radhika,1
60de3,60de3_session1_listb_naming_trial128_scorpion.wav,1,b,naming,128,scorpion,841,correct,NA,Apr 27 2023 21:37:29,Radhika,1
60de3,60de3_session1_listb_naming_trial129_camera.wav,1,b,naming,129,camera,1161,correct,NA,Apr 27 2023 21:37:42,Radhika,1
60de3,60de3_session1_listb_naming_trial130_greenhouse.wav,1,b,naming,130,greenhouse,1169,correct,NA,Apr 27 2023 21:37:56,Radhika,1
60de3,60de3_session1_listb_naming_trial131_skull.wav,1,b,naming,131,skull,794,correct,NA,Apr 27 2023 21:38:14,Radhika,1
60de3,60de3_session1_listb_naming_trial132_wallet.wav,1,b,naming,132,wallet,899,correct,NA,Apr 27 2023 21:38:33,Radhika,1
60de3,60de3_session1_listb_naming_trial133_farm.wav,1,b,naming,133,farm,982,correct,NA,Apr 27 2023 21:39:14,Radhika,1
60de3,60de3_session1_listb_naming_trial134_volcano.wav,1,b,naming,134,volcano,842,correct,NA,Apr 27 2023 21:39:29,Radhika,1
60de3,60de3_session1_listb_naming_trial135_banana.wav,1,b,naming,135,banana,845,correct,NA,Apr 27 2023 21:39:41,Radhika,1
60de3,60de3_session1_listb_naming_trial136_scarecrow.wav,1,b,naming,136,scarecrow,882,correct,NA,Apr 27 2023 21:39:59,Radhika,1
60de3,60de3_session1_listb_naming_trial137_bed.wav,1,b,naming,137,bed,1060,correct,NA,Apr 27 2023 21:40:13,Radhika,1
60de3,60de3_session1_listb_naming_trial138_fruit.wav,1,b,naming,138,fruit,789,correct,NA,Apr 27 2023 21:40:41,Radhika,1
60de3,60de3_session1_listb_naming_trial139_watch.wav,1,b,naming,139,watch,871,correct,NA,Apr 27 2023 21:40:52,Radhika,1
60de3,60de3_session1_listb_naming_trial140_bedroom.wav,1,b,naming,140,bedroom,1021,correct,NA,Apr 27 2023 21:41:03,Radhika,1
60de3,60de3_session1_listb_naming_trial141_cannon.wav,1,b,naming,141,cannon,879,correct,NA,Apr 27 2023 21:41:51,Radhika,1
60de3,60de3_session1_listb_naming_trial142_thermometer.wav,1,b,naming,142,thermometer,999,correct,NA,Apr 27 2023 21:42:34,Radhika,1
60de3,60de3_session1_listb_naming_trial143_airport.wav,1,b,naming,143,airport,1414,correct,NA,Apr 27 2023 21:42:43,Radhika,1
60de3,60de3_session1_listb_naming_trial144_gun.wav,1,b,naming,144,gun,957,correct,NA,Apr 27 2023 21:42:56,Radhika,1
60de3,60de3_session1_listb_naming_trial145_ring.wav,1,b,naming,145,ring,817,correct,NA,Apr 27 2023 21:43:08,Radhika,1
60de3,60de3_session1_listb_naming_trial146_desert.wav,1,b,naming,146,desert,965,correct,NA,Apr 27 2023 21:43:26,Radhika,1
60de3,60de3_session1_listb_naming_trial147_boomerang.wav,1,b,naming,147,boomerang,948,correct,NA,Apr 27 2023 21:43:38,Radhika,1
60de3,60de3_session1_listb_naming_trial148_skeleton.wav,1,b,naming,148,skeleton,881,correct,NA,Apr 27 2023 21:44:13,Radhika,1
60de3,60de3_session1_listb_naming_trial149_lemon.wav,1,b,naming,149,lemon,898,correct,NA,Apr 27 2023 21:44:24,Radhika,1
60de3,60de3_session1_listb_naming_trial150_umbrella.wav,1,b,naming,150,umbrella,943,correct,NA,Apr 27 2023 21:44:55,Radhika,1
