Participant_ID,File_Name,Session,List,Type_Trial,Trial_Nbr,Target,RT,Response_Trial,Comment,Date_Correction,Assessor_Name,Processed
5e432,5e432_session1_listb_naming_trial001_brain.wav,1,b,naming,1,brain,811,correct,NA,May 03 2023 15:36:05,Friederike,1
5e432,5e432_session1_listb_naming_trial002_volcano.wav,1,b,naming,2,volcano,851,correct,NA,May 03 2023 15:37:14,Friederike,1
5e432,5e432_session1_listb_naming_trial003_belt.wav,1,b,naming,3,belt,-1,wrong_word,NA,May 03 2023 15:37:21,Friederike,1
5e432,5e432_session1_listb_naming_trial004_pirate.wav,1,b,naming,4,pirate,-1,correct,NA,May 03 2023 15:38:17,Friederike,1
5e432,5e432_session1_listb_naming_trial005_lemon.wav,1,b,naming,5,lemon,763,correct,NA,May 03 2023 15:38:49,Friederike,1
5e432,5e432_session1_listb_naming_trial006_bra.wav,1,b,naming,6,bra,674,correct,NA,May 03 2023 15:39:09,Friederike,1
5e432,5e432_session1_listb_naming_trial007_fire.wav,1,b,naming,7,fire,-1,disfluency,NA,May 03 2023 15:39:18,Friederike,1
5e432,5e432_session1_listb_naming_trial008_king.wav,1,b,naming,8,king,-1,disfluency,NA,May 03 2023 15:39:22,Friederike,1
5e432,5e432_session1_listb_naming_trial009_bat.wav,1,b,naming,9,bat,716,correct,NA,May 03 2023 15:39:44,Friederike,1
5e432,5e432_session1_listb_naming_trial010_back.wav,1,b,naming,10,back,760,correct,NA,May 03 2023 15:40:06,Friederike,1
5e432,5e432_session1_listb_naming_trial011_broom.wav,1,b,naming,11,broom,641,correct,NA,May 03 2023 15:40:38,Friederike,1
5e432,5e432_session1_listb_naming_trial012_dog.wav,1,b,naming,12,dog,675,correct,NA,May 03 2023 15:41:01,Friederike,1
5e432,5e432_session1_listb_naming_trial013_girl.wav,1,b,naming,13,girl,754,correct,NA,May 03 2023 15:41:55,Friederike,1
5e432,5e432_session1_listb_naming_trial014_maze.wav,1,b,naming,14,maze,820,correct,NA,May 03 2023 15:42:19,Friederike,1
5e432,5e432_session1_listb_naming_trial015_cage.wav,1,b,naming,15,cage,966,correct,NA,May 03 2023 15:42:41,Friederike,1
5e432,5e432_session1_listb_naming_trial016_balloon.wav,1,b,naming,16,balloon,758,correct,NA,May 03 2023 15:43:02,Friederike,1
5e432,5e432_session1_listb_naming_trial017_desert.wav,1,b,naming,17,desert,957,correct,NA,May 03 2023 15:43:27,Friederike,1
5e432,5e432_session1_listb_naming_trial018_microphone.wav,1,b,naming,18,microphone,818,correct,NA,May 03 2023 15:43:55,Friederike,1
5e432,5e432_session1_listb_naming_trial019_skull.wav,1,b,naming,19,skull,621,correct,NA,May 03 2023 15:50:08,Friederike,1
5e432,5e432_session1_listb_naming_trial020_well.wav,1,b,naming,20,well,831,correct,NA,May 03 2023 15:50:38,Friederike,1
5e432,5e432_session1_listb_naming_trial021_cactus.wav,1,b,naming,21,cactus,744,correct,NA,May 03 2023 15:51:05,Friederike,1
5e432,5e432_session1_listb_naming_trial022_shadow.wav,1,b,naming,22,shadow,734,correct,NA,May 03 2023 15:53:37,Friederike,1
5e432,5e432_session1_listb_naming_trial023_face.wav,1,b,naming,23,face,700,correct,NA,May 03 2023 15:54:11,Friederike,1
5e432,5e432_session1_listb_naming_trial024_nun.wav,1,b,naming,24,nun,884,correct,NA,May 03 2023 15:54:38,Friederike,1
5e432,5e432_session1_listb_naming_trial025_swimming.wav,1,b,naming,25,swimming,741,correct,NA,May 03 2023 15:55:02,Friederike,1
5e432,5e432_session1_listb_naming_trial026_boomerang.wav,1,b,naming,26,boomerang,765,correct,NA,May 03 2023 15:55:30,Friederike,1
5e432,5e432_session1_listb_naming_trial027_shark.wav,1,b,naming,27,shark,1131,correct,NA,May 03 2023 15:55:55,Friederike,1
5e432,5e432_session1_listb_naming_trial028_needle.wav,1,b,naming,28,needle,864,correct,NA,May 03 2023 15:56:13,Friederike,1
5e432,5e432_session1_listb_naming_trial029_banana.wav,1,b,naming,29,banana,717,correct,NA,May 03 2023 15:56:34,Friederike,1
5e432,5e432_session1_listb_naming_trial030_moustache.wav,1,b,naming,30,moustache,692,correct,NA,May 03 2023 15:56:54,Friederike,1
5e432,5e432_session1_listb_naming_trial031_snail.wav,1,b,naming,31,snail,611,correct,NA,May 03 2023 15:57:16,Friederike,1
5e432,5e432_session1_listb_naming_trial032_crown.wav,1,b,naming,32,crown,776,correct,NA,May 03 2023 15:57:59,Friederike,1
5e432,5e432_session1_listb_naming_trial033_leaf.wav,1,b,naming,33,leaf,684,correct,NA,May 03 2023 15:58:20,Friederike,1
5e432,5e432_session1_listb_naming_trial034_fan.wav,1,b,naming,34,fan,1110,correct,NA,May 03 2023 15:59:33,Friederike,1
5e432,5e432_session1_listb_naming_trial035_button.wav,1,b,naming,35,button,793,correct,NA,May 03 2023 15:59:51,Friederike,1
5e432,5e432_session1_listb_naming_trial036_door.wav,1,b,naming,36,door,717,correct,NA,May 03 2023 16:00:13,Friederike,1
5e432,5e432_session1_listb_naming_trial037_egg.wav,1,b,naming,37,egg,813,correct,NA,May 03 2023 16:00:55,Friederike,1
5e432,5e432_session1_listb_naming_trial038_tank.wav,1,b,naming,38,tank,1022,correct,NA,May 03 2023 16:01:19,Friederike,1
5e432,5e432_session1_listb_naming_trial039_coffee.wav,1,b,naming,39,coffee,923,correct,NA,May 03 2023 16:01:46,Friederike,1
5e432,5e432_session1_listb_naming_trial040_witch.wav,1,b,naming,40,witch,793,correct,NA,May 03 2023 16:02:23,Friederike,1
5e432,5e432_session1_listb_naming_trial041_dentist.wav,1,b,naming,41,dentist,-1,disfluency,NA,May 03 2023 16:02:30,Friederike,1
5e432,5e432_session1_listb_naming_trial042_football.wav,1,b,naming,42,football,769,correct,NA,May 03 2023 16:02:54,Friederike,1
5e432,5e432_session1_listb_naming_trial043_pilot.wav,1,b,naming,43,pilot,923,correct,NA,May 03 2023 16:03:18,Friederike,1
5e432,5e432_session1_listb_naming_trial044_keyboard.wav,1,b,naming,44,keyboard,738,correct,NA,May 03 2023 16:03:40,Friederike,1
5e432,5e432_session1_listb_naming_trial045_hair.wav,1,b,naming,45,hair,801,correct,NA,May 03 2023 16:04:00,Friederike,1
5e432,5e432_session1_listb_naming_trial046_shirt.wav,1,b,naming,46,shirt,919,correct,NA,May 03 2023 16:04:22,Friederike,1
5e432,5e432_session1_listb_naming_trial047_skeleton.wav,1,b,naming,47,skeleton,741,correct,NA,May 03 2023 16:04:40,Friederike,1
5e432,5e432_session1_listb_naming_trial048_knee.wav,1,b,naming,48,knee,812,correct,NA,May 03 2023 16:05:08,Friederike,1
5e432,5e432_session1_listb_naming_trial049_screwdriver.wav,1,b,naming,49,screwdriver,-1,disfluency,NA,May 03 2023 16:05:16,Friederike,1
5e432,5e432_session1_listb_naming_trial050_coconut.wav,1,b,naming,50,coconut,1003,correct,NA,May 03 2023 16:05:45,Friederike,1
5e432,5e432_session1_listb_naming_trial051_parrot.wav,1,b,naming,51,parrot,727,correct,NA,May 03 2023 16:06:02,Friederike,1
5e432,5e432_session1_listb_naming_trial052_fist.wav,1,b,naming,52,fist,748,correct,NA,May 03 2023 16:06:26,Friederike,1
5e432,5e432_session1_listb_naming_trial053_diamond.wav,1,b,naming,53,diamond,793,correct,NA,May 03 2023 16:06:46,Friederike,1
5e432,5e432_session1_listb_naming_trial054_sock.wav,1,b,naming,54,sock,730,correct,NA,May 03 2023 16:07:22,Friederike,1
5e432,5e432_session1_listb_naming_trial055_mirror.wav,1,b,naming,55,mirror,789,correct,NA,May 03 2023 16:07:42,Friederike,1
5e432,5e432_session1_listb_naming_trial056_guitar.wav,1,b,naming,56,guitar,779,correct,NA,May 03 2023 16:08:02,Friederike,1
5e432,5e432_session1_listb_naming_trial057_asparagus.wav,1,b,naming,57,asparagus,-1,disfluency,NA,May 03 2023 16:08:13,Friederike,1
5e432,5e432_session1_listb_naming_trial058_scorpion.wav,1,b,naming,58,scorpion,730,correct,NA,May 03 2023 16:08:37,Friederike,1
5e432,5e432_session1_listb_naming_trial059_pizza.wav,1,b,naming,59,pizza,701,correct,NA,May 03 2023 16:08:56,Friederike,1
5e432,5e432_session1_listb_naming_trial060_scarf.wav,1,b,naming,60,scarf,650,correct,NA,May 03 2023 16:09:14,Friederike,1
5e432,5e432_session1_listb_naming_trial061_telephone.wav,1,b,naming,61,telephone,747,correct,NA,May 03 2023 16:09:38,Friederike,1
5e432,5e432_session1_listb_naming_trial062_jar.wav,1,b,naming,62,jar,788,correct,NA,May 03 2023 16:09:57,Friederike,1
5e432,5e432_session1_listb_naming_trial063_dinosaur.wav,1,b,naming,63,dinosaur,876,correct,NA,May 03 2023 16:10:17,Friederike,1
5e432,5e432_session1_listb_naming_trial064_dolphin.wav,1,b,naming,64,dolphin,771,correct,NA,May 03 2023 16:10:37,Friederike,1
5e432,5e432_session1_listb_naming_trial065_spoon.wav,1,b,naming,65,spoon,646,correct,NA,May 04 2023 14:06:13,Friederike,1
5e432,5e432_session1_listb_naming_trial066_eye.wav,1,b,naming,66,eye,772,correct,NA,May 04 2023 14:06:33,Friederike,1
5e432,5e432_session1_listb_naming_trial067_vein.wav,1,b,naming,67,vein,1140,correct,NA,May 04 2023 14:07:25,Friederike,1
5e432,5e432_session1_listb_naming_trial068_honey.wav,1,b,naming,68,honey,912,correct,NA,May 04 2023 14:07:52,Friederike,1
5e432,5e432_session1_listb_naming_trial069_fruit.wav,1,b,naming,69,fruit,836,correct,NA,May 04 2023 14:08:10,Friederike,1
5e432,5e432_session1_listb_naming_trial070_watch.wav,1,b,naming,70,watch,797,correct,NA,May 04 2023 14:08:27,Friederike,1
5e432,5e432_session1_listb_naming_trial071_coffin.wav,1,b,naming,71,coffin,798,correct,NA,May 04 2023 14:08:52,Friederike,1
5e432,5e432_session1_listb_naming_trial072_parachute.wav,1,b,naming,72,parachute,840,correct,NA,May 04 2023 14:09:06,Friederike,1
5e432,5e432_session1_listb_naming_trial073_hand.wav,1,b,naming,73,hand,672,correct,NA,May 04 2023 14:09:21,Friederike,1
5e432,5e432_session1_listb_naming_trial074_umbrella.wav,1,b,naming,74,umbrella,731,correct,NA,May 04 2023 14:09:44,Friederike,1
5e432,5e432_session1_listb_naming_trial075_nose.wav,1,b,naming,75,nose,743,correct,NA,May 04 2023 14:10:08,Friederike,1
5e432,5e432_session1_listb_naming_trial076_condom.wav,1,b,naming,76,condom,876,correct,NA,May 04 2023 14:10:28,Friederike,1
5e432,5e432_session1_listb_naming_trial077_calculator.wav,1,b,naming,77,calculator,887,correct,NA,May 04 2023 14:10:54,Friederike,1
5e432,5e432_session1_listb_naming_trial078_airport.wav,1,b,naming,78,airport,881,correct,NA,May 04 2023 14:11:15,Friederike,1
5e432,5e432_session1_listb_naming_trial079_frog.wav,1,b,naming,79,frog,818,correct,NA,May 04 2023 14:11:31,Friederike,1
5e432,5e432_session1_listb_naming_trial080_waiter.wav,1,b,naming,80,waiter,852,correct,NA,May 04 2023 14:11:47,Friederike,1
5e432,5e432_session1_listb_naming_trial081_harp.wav,1,b,naming,81,harp,733,correct,NA,May 04 2023 14:12:24,Friederike,1
5e432,5e432_session1_listb_naming_trial082_thermometer.wav,1,b,naming,82,thermometer,802,correct,NA,May 04 2023 14:14:39,Friederike,1
5e432,5e432_session1_listb_naming_trial083_farm.wav,1,b,naming,83,farm,881,correct,NA,May 04 2023 14:15:06,Friederike,1
5e432,5e432_session1_listb_naming_trial084_camera.wav,1,b,naming,84,camera,719,correct,NA,May 04 2023 14:15:21,Friederike,1
5e432,5e432_session1_listb_naming_trial085_sheep.wav,1,b,naming,85,sheep,781,correct,NA,May 04 2023 14:15:39,Friederike,1
5e432,5e432_session1_listb_naming_trial086_foot.wav,1,b,naming,86,foot,684,correct,NA,May 04 2023 14:15:57,Friederike,1
5e432,5e432_session1_listb_naming_trial087_road.wav,1,b,naming,87,road,792,correct,NA,May 04 2023 14:16:14,Friederike,1
5e432,5e432_session1_listb_naming_trial088_pool.wav,1,b,naming,88,pool,989,correct,NA,May 04 2023 14:16:36,Friederike,1
5e432,5e432_session1_listb_naming_trial089_lion.wav,1,b,naming,89,lion,-1,disfluency,NA,May 04 2023 14:16:45,Friederike,1
5e432,5e432_session1_listb_naming_trial090_sink.wav,1,b,naming,90,sink,749,correct,NA,May 04 2023 14:17:01,Friederike,1
5e432,5e432_session1_listb_naming_trial091_apron.wav,1,b,naming,91,apron,760,correct,NA,May 04 2023 14:17:26,Friederike,1
5e432,5e432_session1_listb_naming_trial092_devil.wav,1,b,naming,92,devil,774,correct,NA,May 04 2023 14:17:41,Friederike,1
5e432,5e432_session1_listb_naming_trial093_elephant.wav,1,b,naming,93,elephant,771,correct,NA,May 04 2023 14:17:59,Friederike,1
5e432,5e432_session1_listb_naming_trial094_earring.wav,1,b,naming,94,earring,839,correct,NA,May 04 2023 14:18:18,Friederike,1
5e432,5e432_session1_listb_naming_trial095_heart.wav,1,b,naming,95,heart,634,correct,NA,May 04 2023 14:19:07,Friederike,1
5e432,5e432_session1_listb_naming_trial096_iron.wav,1,b,naming,96,iron,814,correct,NA,May 04 2023 14:19:29,Friederike,1
5e432,5e432_session1_listb_naming_trial097_bin.wav,1,b,naming,97,bin,755,correct,NA,May 04 2023 14:19:45,Friederike,1
5e432,5e432_session1_listb_naming_trial098_printer.wav,1,b,naming,98,printer,-1,wrong_word,NA,May 04 2023 14:19:51,Friederike,1
5e432,5e432_session1_listb_naming_trial099_greenhouse.wav,1,b,naming,99,greenhouse,1257,correct,NA,May 04 2023 14:20:15,Friederike,1
5e432,5e432_session1_listb_naming_trial100_cigarette.wav,1,b,naming,100,cigarette,819,correct,NA,May 04 2023 14:20:48,Friederike,1
5e432,5e432_session1_listb_naming_trial101_house.wav,1,b,naming,101,house,946,correct,NA,May 04 2023 14:21:14,Friederike,1
5e432,5e432_session1_listb_naming_trial102_scarecrow.wav,1,b,naming,102,scarecrow,769,correct,NA,May 04 2023 14:21:32,Friederike,1
5e432,5e432_session1_listb_naming_trial103_pumpkin.wav,1,b,naming,103,pumpkin,771,correct,NA,May 04 2023 14:21:48,Friederike,1
5e432,5e432_session1_listb_naming_trial104_glasses.wav,1,b,naming,104,glasses,677,correct,NA,May 04 2023 14:22:05,Friederike,1
5e432,5e432_session1_listb_naming_trial105_tooth.wav,1,b,naming,105,tooth,957,correct,NA,May 04 2023 14:22:21,Friederike,1
5e432,5e432_session1_listb_naming_trial106_television.wav,1,b,naming,106,television,-1,wrong_word,NA,May 04 2023 14:22:28,Friederike,1
5e432,5e432_session1_listb_naming_trial107_burger.wav,1,b,naming,107,burger,1187,correct,NA,May 04 2023 14:22:48,Friederike,1
5e432,5e432_session1_listb_naming_trial108_car.wav,1,b,naming,108,car,760,correct,NA,May 04 2023 14:23:05,Friederike,1
5e432,5e432_session1_listb_naming_trial109_feather.wav,1,b,naming,109,feather,669,correct,NA,May 04 2023 14:23:28,Friederike,1
5e432,5e432_session1_listb_naming_trial110_roof.wav,1,b,naming,110,roof,896,correct,NA,May 04 2023 14:23:44,Friederike,1
5e432,5e432_session1_listb_naming_trial111_lab.wav,1,b,naming,111,lab,842,correct,NA,May 04 2023 14:24:03,Friederike,1
5e432,5e432_session1_listb_naming_trial112_wallet.wav,1,b,naming,112,wallet,873,correct,NA,May 04 2023 14:24:19,Friederike,1
5e432,5e432_session1_listb_naming_trial113_trumpet.wav,1,b,naming,113,trumpet,771,correct,NA,May 04 2023 14:24:40,Friederike,1
5e432,5e432_session1_listb_naming_trial114_glass.wav,1,b,naming,114,glass,721,correct,NA,May 04 2023 14:24:54,Friederike,1
5e432,5e432_session1_listb_naming_trial115_man.wav,1,b,naming,115,man,846,correct,NA,May 04 2023 14:25:12,Friederike,1
5e432,5e432_session1_listb_naming_trial116_finger.wav,1,b,naming,116,finger,780,correct,NA,May 04 2023 14:25:29,Friederike,1
5e432,5e432_session1_listb_naming_trial117_ring.wav,1,b,naming,117,ring,757,correct,NA,May 04 2023 14:25:58,Friederike,1
5e432,5e432_session1_listb_naming_trial118_chair.wav,1,b,naming,118,chair,718,correct,NA,May 04 2023 14:26:15,Friederike,1
5e432,5e432_session1_listb_naming_trial119_beard.wav,1,b,naming,119,beard,752,correct,NA,May 04 2023 14:26:29,Friederike,1
5e432,5e432_session1_listb_naming_trial120_bedroom.wav,1,b,naming,120,bedroom,960,correct,NA,May 04 2023 14:26:45,Friederike,1
5e432,5e432_session1_listb_naming_trial121_spider.wav,1,b,naming,121,spider,730,correct,NA,May 04 2023 14:27:02,Friederike,1
5e432,5e432_session1_listb_naming_trial122_skateboard.wav,1,b,naming,122,skateboard,764,correct,NA,May 04 2023 14:27:20,Friederike,1
5e432,5e432_session1_listb_naming_trial123_duck.wav,1,b,naming,123,duck,761,correct,NA,May 04 2023 14:27:34,Friederike,1
5e432,5e432_session1_listb_naming_trial124_gun.wav,1,b,naming,124,gun,770,correct,NA,May 04 2023 14:27:48,Friederike,1
5e432,5e432_session1_listb_naming_trial125_cowboy.wav,1,b,naming,125,cowboy,980,correct,NA,May 04 2023 14:28:05,Friederike,1
5e432,5e432_session1_listb_naming_trial126_butcher.wav,1,b,naming,126,butcher,898,correct,NA,May 04 2023 14:28:21,Friederike,1
5e432,5e432_session1_listb_naming_trial127_lizard.wav,1,b,naming,127,lizard,742,correct,NA,May 04 2023 14:28:43,Friederike,1
5e432,5e432_session1_listb_naming_trial128_stapler.wav,1,b,naming,128,stapler,-1,disfluency,NA,May 04 2023 14:29:34,Friederike,1
5e432,5e432_session1_listb_naming_trial129_ankle.wav,1,b,naming,129,ankle,-1,disfluency,NA,May 04 2023 14:29:40,Friederike,1
5e432,5e432_session1_listb_naming_trial130_strawberry.wav,1,b,naming,130,strawberry,670,correct,NA,May 04 2023 14:30:05,Friederike,1
5e432,5e432_session1_listb_naming_trial131_torch.wav,1,b,naming,131,torch,724,correct,NA,May 04 2023 14:30:23,Friederike,1
5e432,5e432_session1_listb_naming_trial132_handle.wav,1,b,naming,132,handle,959,correct,NA,May 04 2023 14:30:40,Friederike,1
5e432,5e432_session1_listb_naming_trial133_penguin.wav,1,b,naming,133,penguin,685,correct,NA,May 04 2023 14:30:59,Friederike,1
5e432,5e432_session1_listb_naming_trial134_bible.wav,1,b,naming,134,bible,763,correct,NA,May 04 2023 14:31:14,Friederike,1
5e432,5e432_session1_listb_naming_trial135_cone.wav,1,b,naming,135,cone,1061,correct,NA,May 04 2023 14:31:30,Friederike,1
5e432,5e432_session1_listb_naming_trial136_giraffe.wav,1,b,naming,136,giraffe,675,correct,NA,May 04 2023 14:31:53,Friederike,1
5e432,5e432_session1_listb_naming_trial137_dragon.wav,1,b,naming,137,dragon,-1,disfluency,NA,May 04 2023 14:32:03,Friederike,1
5e432,5e432_session1_listb_naming_trial138_cloud.wav,1,b,naming,138,cloud,879,correct,NA,May 04 2023 14:37:25,Friederike,1
5e432,5e432_session1_listb_naming_trial139_caravan.wav,1,b,naming,139,caravan,775,correct,NA,May 04 2023 14:37:39,Friederike,1
5e432,5e432_session1_listb_naming_trial140_baby.wav,1,b,naming,140,baby,749,correct,NA,May 04 2023 14:37:51,Friederike,1
5e432,5e432_session1_listb_naming_trial141_nurse.wav,1,b,naming,141,nurse,1003,correct,NA,May 04 2023 14:38:13,Friederike,1
5e432,5e432_session1_listb_naming_trial142_broccoli.wav,1,b,naming,142,broccoli,915,correct,NA,May 04 2023 14:38:28,Friederike,1
5e432,5e432_session1_listb_naming_trial143_hedgehog.wav,1,b,naming,143,hedgehog,780,correct,NA,May 04 2023 14:38:44,Friederike,1
5e432,5e432_session1_listb_naming_trial144_ambulance.wav,1,b,naming,144,ambulance,-1,disfluency,NA,May 04 2023 14:38:55,Friederike,1
5e432,5e432_session1_listb_naming_trial145_chain.wav,1,b,naming,145,chain,850,correct,NA,May 04 2023 14:39:11,Friederike,1
5e432,5e432_session1_listb_naming_trial146_mask.wav,1,b,naming,146,mask,886,correct,NA,May 04 2023 14:39:28,Friederike,1
5e432,5e432_session1_listb_naming_trial147_bed.wav,1,b,naming,147,bed,771,correct,NA,May 04 2023 14:39:52,Friederike,1
5e432,5e432_session1_listb_naming_trial148_cannon.wav,1,b,naming,148,cannon,1039,correct,NA,May 04 2023 14:40:26,Friederike,1
5e432,5e432_session1_listb_naming_trial149_calendar.wav,1,b,naming,149,calendar,821,correct,NA,May 04 2023 14:40:44,Friederike,1
5e432,5e432_session1_listb_naming_trial150_choir.wav,1,b,naming,150,choir,-1,disfluency,NA,May 04 2023 14:40:59,Friederike,1
