Participant_ID,File_Name,Session,List,Type_Trial,Trial_Nbr,Target,RT,Response_Trial,Comment,Date_Correction,Assessor_Name,Processed
629f2,629f2_session1_listb_naming_trial001_pilot.wav,1,b,naming,1,pilot,1568,correct,NA,May  4 2023 13:09:50,Radhika,1
629f2,629f2_session1_listb_naming_trial002_hand.wav,1,b,naming,2,hand,745,correct,NA,May  4 2023 13:10:03,Radhika,1
629f2,629f2_session1_listb_naming_trial003_watch.wav,1,b,naming,3,watch,798,correct,NA,May  4 2023 13:10:28,Radhika,1
629f2,629f2_session1_listb_naming_trial004_fist.wav,1,b,naming,4,fist,793,correct,NA,May  4 2023 13:10:47,Radhika,1
629f2,629f2_session1_listb_naming_trial005_witch.wav,1,b,naming,5,witch,727,correct,NA,May  4 2023 13:10:58,Radhika,1
629f2,629f2_session1_listb_naming_trial006_road.wav,1,b,naming,6,road,980,correct,NA,May  4 2023 13:11:15,Radhika,1
629f2,629f2_session1_listb_naming_trial007_guitar.wav,1,b,naming,7,guitar,691,correct,NA,May  4 2023 13:11:33,Radhika,1
629f2,629f2_session1_listb_naming_trial008_waiter.wav,1,b,naming,8,waiter,726,correct,NA,May  4 2023 13:11:51,Radhika,1
629f2,629f2_session1_listb_naming_trial009_printer.wav,1,b,naming,9,printer,757,correct,NA,May  4 2023 13:12:08,Radhika,1
629f2,629f2_session1_listb_naming_trial010_door.wav,1,b,naming,10,door,781,correct,NA,May  4 2023 13:12:23,Radhika,1
629f2,629f2_session1_listb_naming_trial011_earring.wav,1,b,naming,11,earring,1151,correct,NA,May  4 2023 13:12:44,Radhika,1
629f2,629f2_session1_listb_naming_trial012_feather.wav,1,b,naming,12,feather,728,correct,NA,May  4 2023 13:13:00,Radhika,1
629f2,629f2_session1_listb_naming_trial013_tank.wav,1,b,naming,13,tank,1151,correct,NA,May  4 2023 13:13:15,Radhika,1
629f2,629f2_session1_listb_naming_trial014_dolphin.wav,1,b,naming,14,dolphin,752,correct,NA,May  4 2023 13:13:30,Radhika,1
629f2,629f2_session1_listb_naming_trial015_bed.wav,1,b,naming,15,bed,853,correct,NA,May  4 2023 13:13:44,Radhika,1
629f2,629f2_session1_listb_naming_trial016_diamond.wav,1,b,naming,16,diamond,778,correct,NA,May  4 2023 13:13:58,Radhika,1
629f2,629f2_session1_listb_naming_trial017_button.wav,1,b,naming,17,button,816,correct,NA,May  4 2023 13:14:24,Radhika,1
629f2,629f2_session1_listb_naming_trial018_glass.wav,1,b,naming,18,glass,754,correct,NA,May  4 2023 13:14:37,Radhika,1
629f2,629f2_session1_listb_naming_trial019_brain.wav,1,b,naming,19,brain,781,correct,NA,May  4 2023 13:14:57,Radhika,1
629f2,629f2_session1_listb_naming_trial020_eye.wav,1,b,naming,20,eye,742,correct,NA,May  4 2023 13:15:07,Radhika,1
629f2,629f2_session1_listb_naming_trial021_burger.wav,1,b,naming,21,burger,721,correct,NA,May  4 2023 13:15:20,Radhika,1
629f2,629f2_session1_listb_naming_trial022_broccoli.wav,1,b,naming,22,broccoli,915,correct,NA,May  4 2023 13:15:33,Radhika,1
629f2,629f2_session1_listb_naming_trial023_broom.wav,1,b,naming,23,broom,796,correct,NA,May  4 2023 13:15:47,Radhika,1
629f2,629f2_session1_listb_naming_trial024_airport.wav,1,b,naming,24,airport,1072,correct,NA,May  4 2023 13:16:04,Radhika,1
629f2,629f2_session1_listb_naming_trial025_finger.wav,1,b,naming,25,finger,815,correct,NA,May  4 2023 13:16:35,Radhika,1
629f2,629f2_session1_listb_naming_trial026_bat.wav,1,b,naming,26,bat,780,correct,NA,May  4 2023 13:16:48,Radhika,1
629f2,629f2_session1_listb_naming_trial027_ambulance.wav,1,b,naming,27,ambulance,1192,correct,NA,May  4 2023 13:17:13,Radhika,1
629f2,629f2_session1_listb_naming_trial028_chair.wav,1,b,naming,28,chair,789,correct,NA,May  4 2023 13:17:29,Radhika,1
629f2,629f2_session1_listb_naming_trial029_gun.wav,1,b,naming,29,gun,779,correct,NA,May  4 2023 13:17:42,Radhika,1
629f2,629f2_session1_listb_naming_trial030_cone.wav,1,b,naming,30,cone,1145,correct,NA,May  4 2023 13:18:01,Radhika,1
629f2,629f2_session1_listb_naming_trial031_elephant.wav,1,b,naming,31,elephant,1093,correct,NA,May  4 2023 13:18:26,Radhika,1
629f2,629f2_session1_listb_naming_trial032_lab.wav,1,b,naming,32,lab,1269,correct,NA,May  4 2023 13:19:07,Radhika,1
629f2,629f2_session1_listb_naming_trial033_cigarette.wav,1,b,naming,33,cigarette,730,correct,NA,May  4 2023 13:19:24,Radhika,1
629f2,629f2_session1_listb_naming_trial034_parrot.wav,1,b,naming,34,parrot,735,correct,NA,May  4 2023 13:19:38,Radhika,1
629f2,629f2_session1_listb_naming_trial035_jar.wav,1,b,naming,35,jar,897,correct,NA,May  4 2023 13:19:54,Radhika,1
629f2,629f2_session1_listb_naming_trial036_bra.wav,1,b,naming,36,bra,774,correct,NA,May  4 2023 13:20:06,Radhika,1
629f2,629f2_session1_listb_naming_trial037_calendar.wav,1,b,naming,37,calendar,827,correct,NA,May  4 2023 13:20:26,Radhika,1
629f2,629f2_session1_listb_naming_trial038_snail.wav,1,b,naming,38,snail,717,correct,NA,May  4 2023 13:20:50,Radhika,1
629f2,629f2_session1_listb_naming_trial039_harp.wav,1,b,naming,39,harp,729,correct,NA,May  4 2023 13:21:14,Radhika,1
629f2,629f2_session1_listb_naming_trial040_nun.wav,1,b,naming,40,nun,747,correct,NA,May  4 2023 13:21:32,Radhika,1
629f2,629f2_session1_listb_naming_trial041_scarecrow.wav,1,b,naming,41,scarecrow,723,correct,NA,May  4 2023 13:21:43,Radhika,1
629f2,629f2_session1_listb_naming_trial042_girl.wav,1,b,naming,42,girl,1076,correct,NA,May  4 2023 13:22:15,Radhika,1
629f2,629f2_session1_listb_naming_trial043_fire.wav,1,b,naming,43,fire,760,correct,NA,May  4 2023 13:22:45,Radhika,1
629f2,629f2_session1_listb_naming_trial044_needle.wav,1,b,naming,44,needle,838,correct,NA,May  4 2023 13:22:54,Radhika,1
629f2,629f2_session1_listb_naming_trial045_duck.wav,1,b,naming,45,duck,-1,wrong_word,NA,May  4 2023 13:23:02,Radhika,1
629f2,629f2_session1_listb_naming_trial046_coffin.wav,1,b,naming,46,coffin,1689,correct,NA,May  4 2023 13:23:12,Radhika,1
629f2,629f2_session1_listb_naming_trial047_heart.wav,1,b,naming,47,heart,826,correct,NA,May  4 2023 13:23:32,Radhika,1
629f2,629f2_session1_listb_naming_trial048_cloud.wav,1,b,naming,48,cloud,735,correct,NA,May  4 2023 13:23:47,Radhika,1
629f2,629f2_session1_listb_naming_trial049_dinosaur.wav,1,b,naming,49,dinosaur,1037,correct,NA,May  4 2023 13:23:57,Radhika,1
629f2,629f2_session1_listb_naming_trial050_knee.wav,1,b,naming,50,knee,1172,correct,NA,May  4 2023 13:24:06,Radhika,1
629f2,629f2_session1_listb_naming_trial051_iron.wav,1,b,naming,51,iron,1065,correct,NA,May  4 2023 13:24:24,Radhika,1
629f2,629f2_session1_listb_naming_trial052_vein.wav,1,b,naming,52,vein,1801,correct,NA,May  4 2023 13:41:15,Radhika,1
629f2,629f2_session1_listb_naming_trial053_hedgehog.wav,1,b,naming,53,hedgehog,1183,correct,NA,May  4 2023 13:41:50,Radhika,1
629f2,629f2_session1_listb_naming_trial054_maze.wav,1,b,naming,54,maze,776,correct,NA,May  4 2023 13:41:59,Radhika,1
629f2,629f2_session1_listb_naming_trial055_trumpet.wav,1,b,naming,55,trumpet,2723,correct,NA,May  4 2023 13:42:20,Radhika,1
629f2,629f2_session1_listb_naming_trial056_frog.wav,1,b,naming,56,frog,1008,correct,NA,May  4 2023 13:42:36,Radhika,1
629f2,629f2_session1_listb_naming_trial057_back.wav,1,b,naming,57,back,883,correct,NA,May  4 2023 13:42:47,Radhika,1
629f2,629f2_session1_listb_naming_trial058_coconut.wav,1,b,naming,58,coconut,1238,correct,NA,May  4 2023 13:43:11,Radhika,1
629f2,629f2_session1_listb_naming_trial059_skateboard.wav,1,b,naming,59,skateboard,953,correct,NA,May  4 2023 13:43:28,Radhika,1
629f2,629f2_session1_listb_naming_trial060_spoon.wav,1,b,naming,60,spoon,1136,correct,NA,May  4 2023 13:43:54,Radhika,1
629f2,629f2_session1_listb_naming_trial061_camera.wav,1,b,naming,61,camera,894,correct,NA,May  4 2023 13:44:07,Radhika,1
629f2,629f2_session1_listb_naming_trial062_boomerang.wav,1,b,naming,62,boomerang,1067,correct,NA,May  4 2023 13:44:24,Radhika,1
629f2,629f2_session1_listb_naming_trial063_belt.wav,1,b,naming,63,belt,943,correct,NA,May  4 2023 13:44:42,Radhika,1
629f2,629f2_session1_listb_naming_trial064_strawberry.wav,1,b,naming,64,strawberry,808,correct,NA,May  4 2023 13:45:19,Radhika,1
629f2,629f2_session1_listb_naming_trial065_volcano.wav,1,b,naming,65,volcano,1406,correct,NA,May  4 2023 13:45:40,Radhika,1
629f2,629f2_session1_listb_naming_trial066_butcher.wav,1,b,naming,66,butcher,1363,correct,NA,May  4 2023 13:45:58,Radhika,1
629f2,629f2_session1_listb_naming_trial067_glasses.wav,1,b,naming,67,glasses,828,correct,NA,May  4 2023 13:46:14,Radhika,1
629f2,629f2_session1_listb_naming_trial068_bin.wav,1,b,naming,68,bin,1107,correct,NA,May  4 2023 13:46:35,Radhika,1
629f2,629f2_session1_listb_naming_trial069_house.wav,1,b,naming,69,house,1425,correct,NA,May  4 2023 13:46:49,Radhika,1
629f2,629f2_session1_listb_naming_trial070_farm.wav,1,b,naming,70,farm,1320,correct,NA,May  4 2023 13:47:12,Radhika,1
629f2,629f2_session1_listb_naming_trial071_lion.wav,1,b,naming,71,lion,1065,correct,NA,May  4 2023 13:47:25,Radhika,1
629f2,629f2_session1_listb_naming_trial072_coffee.wav,1,b,naming,72,coffee,840,correct,NA,May  4 2023 13:47:55,Radhika,1
629f2,629f2_session1_listb_naming_trial073_mask.wav,1,b,naming,73,mask,1223,correct,NA,May  4 2023 13:48:05,Radhika,1
629f2,629f2_session1_listb_naming_trial074_ring.wav,1,b,naming,74,ring,1043,correct,NA,May  4 2023 13:48:32,Radhika,1
629f2,629f2_session1_listb_naming_trial075_apron.wav,1,b,naming,75,apron,1186,correct,NA,May  4 2023 13:48:51,Radhika,1
629f2,629f2_session1_listb_naming_trial076_scorpion.wav,1,b,naming,76,scorpion,862,correct,NA,May  4 2023 13:49:18,Radhika,1
629f2,629f2_session1_listb_naming_trial077_dragon.wav,1,b,naming,77,dragon,758,correct,NA,May  4 2023 13:49:40,Radhika,1
629f2,629f2_session1_listb_naming_trial078_keyboard.wav,1,b,naming,78,keyboard,1535,correct,NA,May  4 2023 13:50:03,Radhika,1
629f2,629f2_session1_listb_naming_trial079_swimming.wav,1,b,naming,79,swimming,-1,wrong_word,NA,May  4 2023 13:50:14,Radhika,1
629f2,629f2_session1_listb_naming_trial080_ankle.wav,1,b,naming,80,ankle,973,correct,NA,May  4 2023 13:50:30,Radhika,1
629f2,629f2_session1_listb_naming_trial081_giraffe.wav,1,b,naming,81,giraffe,700,correct,NA,May  4 2023 13:51:02,Radhika,1
629f2,629f2_session1_listb_naming_trial082_chain.wav,1,b,naming,82,chain,926,correct,NA,May  4 2023 13:51:25,Radhika,1
629f2,629f2_session1_listb_naming_trial083_dentist.wav,1,b,naming,83,dentist,963,correct,NA,May  4 2023 13:51:44,Radhika,1
629f2,629f2_session1_listb_naming_trial084_sock.wav,1,b,naming,84,sock,804,correct,NA,May  4 2023 13:52:04,Radhika,1
629f2,629f2_session1_listb_naming_trial085_football.wav,1,b,naming,85,football,681,correct,NA,May  4 2023 13:52:32,Radhika,1
629f2,629f2_session1_listb_naming_trial086_penguin.wav,1,b,naming,86,penguin,834,correct,NA,May  4 2023 13:53:03,Radhika,1
629f2,629f2_session1_listb_naming_trial087_beard.wav,1,b,naming,87,beard,736,correct,NA,May  4 2023 13:53:26,Radhika,1
629f2,629f2_session1_listb_naming_trial088_caravan.wav,1,b,naming,88,caravan,919,correct,NA,May  4 2023 13:53:46,Radhika,1
629f2,629f2_session1_listb_naming_trial089_dog.wav,1,b,naming,89,dog,862,correct,NA,May  4 2023 13:54:01,Radhika,1
629f2,629f2_session1_listb_naming_trial090_calculator.wav,1,b,naming,90,calculator,1471,correct,NA,May  4 2023 13:54:19,Radhika,1
629f2,629f2_session1_listb_naming_trial091_crown.wav,1,b,naming,91,crown,1569,correct,NA,May  4 2023 13:55:06,Radhika,1
629f2,629f2_session1_listb_naming_trial092_man.wav,1,b,naming,92,man,1355,correct,NA,May  4 2023 13:55:18,Radhika,1
629f2,629f2_session1_listb_naming_trial093_hair.wav,1,b,naming,93,hair,989,correct,NA,May  4 2023 13:55:48,Radhika,1
629f2,629f2_session1_listb_naming_trial094_television.wav,1,b,naming,94,television,-1,wrong_word,NA,May  4 2023 13:56:17,Radhika,1
629f2,629f2_session1_listb_naming_trial095_scarf.wav,1,b,naming,95,scarf,701,correct,NA,May  4 2023 13:56:31,Radhika,1
629f2,629f2_session1_listb_naming_trial096_cannon.wav,1,b,naming,96,cannon,851,correct,NA,May  4 2023 13:56:48,Radhika,1
629f2,629f2_session1_listb_naming_trial097_shirt.wav,1,b,naming,97,shirt,1040,correct,NA,May  4 2023 13:57:07,Radhika,1
629f2,629f2_session1_listb_naming_trial098_pool.wav,1,b,naming,98,pool,1292,correct,NA,May  4 2023 13:57:45,Radhika,1
629f2,629f2_session1_listb_naming_trial099_screwdriver.wav,1,b,naming,99,screwdriver,748,correct,NA,May  4 2023 13:58:05,Radhika,1
629f2,629f2_session1_listb_naming_trial100_shadow.wav,1,b,naming,100,shadow,1038,correct,NA,May  4 2023 13:58:23,Radhika,1
629f2,629f2_session1_listb_naming_trial101_moustache.wav,1,b,naming,101,moustache,967,correct,NA,May  4 2023 13:58:36,Radhika,1
629f2,629f2_session1_listb_naming_trial102_telephone.wav,1,b,naming,102,telephone,700,correct,NA,May  4 2023 13:59:00,Radhika,1
629f2,629f2_session1_listb_naming_trial103_condom.wav,1,b,naming,103,condom,1478,correct,NA,May  4 2023 13:59:29,Radhika,1
629f2,629f2_session1_listb_naming_trial104_lemon.wav,1,b,naming,104,lemon,779,correct,NA,May  4 2023 13:59:46,Radhika,1
629f2,629f2_session1_listb_naming_trial105_skeleton.wav,1,b,naming,105,skeleton,812,correct,NA,May  4 2023 14:00:07,Radhika,1
629f2,629f2_session1_listb_naming_trial106_microphone.wav,1,b,naming,106,microphone,817,correct,NA,May  4 2023 14:00:27,Radhika,1
629f2,629f2_session1_listb_naming_trial107_fruit.wav,1,b,naming,107,fruit,1299,correct,NA,May  4 2023 14:00:51,Radhika,1
629f2,629f2_session1_listb_naming_trial108_thermometer.wav,1,b,naming,108,thermometer,1881,correct,NA,May  4 2023 14:01:11,Radhika,1
629f2,629f2_session1_listb_naming_trial109_face.wav,1,b,naming,109,face,1455,correct,NA,May  4 2023 14:01:33,Radhika,1
629f2,629f2_session1_listb_naming_trial110_balloon.wav,1,b,naming,110,balloon,885,correct,NA,May  4 2023 14:01:50,Radhika,1
629f2,629f2_session1_listb_naming_trial111_king.wav,1,b,naming,111,king,894,correct,NA,May  4 2023 14:02:06,Radhika,1
629f2,629f2_session1_listb_naming_trial112_skull.wav,1,b,naming,112,skull,2247,correct,NA,May  4 2023 14:02:22,Radhika,1
629f2,629f2_session1_listb_naming_trial113_asparagus.wav,1,b,naming,113,asparagus,-1,no_resp,NA,May  4 2023 14:02:29,Radhika,1
629f2,629f2_session1_listb_naming_trial114_egg.wav,1,b,naming,114,egg,1205,correct,NA,May  4 2023 14:02:41,Radhika,1
629f2,629f2_session1_listb_naming_trial115_car.wav,1,b,naming,115,car,923,correct,NA,May  4 2023 14:02:56,Radhika,1
629f2,629f2_session1_listb_naming_trial116_spider.wav,1,b,naming,116,spider,1271,correct,NA,May  4 2023 14:03:19,Radhika,1
629f2,629f2_session1_listb_naming_trial117_cage.wav,1,b,naming,117,cage,1428,correct,NA,May  4 2023 14:04:07,Radhika,1
629f2,629f2_session1_listb_naming_trial118_choir.wav,1,b,naming,118,choir,1141,correct,NA,May  4 2023 14:04:21,Radhika,1
629f2,629f2_session1_listb_naming_trial119_honey.wav,1,b,naming,119,honey,1043,correct,NA,May  4 2023 14:12:58,Radhika,1
629f2,629f2_session1_listb_naming_trial120_roof.wav,1,b,naming,120,roof,1299,correct,NA,May  4 2023 14:13:14,Radhika,1
629f2,629f2_session1_listb_naming_trial121_cowboy.wav,1,b,naming,121,cowboy,1201,correct,NA,May  4 2023 14:13:40,Radhika,1
629f2,629f2_session1_listb_naming_trial122_greenhouse.wav,1,b,naming,122,greenhouse,1050,correct,NA,May  4 2023 14:13:53,Radhika,1
629f2,629f2_session1_listb_naming_trial123_baby.wav,1,b,naming,123,baby,705,correct,NA,May  4 2023 14:14:10,Radhika,1
629f2,629f2_session1_listb_naming_trial124_mirror.wav,1,b,naming,124,mirror,753,correct,NA,May  4 2023 14:14:20,Radhika,1
629f2,629f2_session1_listb_naming_trial125_sink.wav,1,b,naming,125,sink,758,correct,NA,May  4 2023 14:14:41,Radhika,1
629f2,629f2_session1_listb_naming_trial126_pirate.wav,1,b,naming,126,pirate,1236,correct,NA,May  4 2023 14:14:56,Radhika,1
629f2,629f2_session1_listb_naming_trial127_foot.wav,1,b,naming,127,foot,705,correct,NA,May  4 2023 14:15:11,Radhika,1
629f2,629f2_session1_listb_naming_trial128_wallet.wav,1,b,naming,128,wallet,861,correct,NA,May  4 2023 14:15:23,Radhika,1
629f2,629f2_session1_listb_naming_trial129_lizard.wav,1,b,naming,129,lizard,923,correct,NA,May  4 2023 14:15:41,Radhika,1
629f2,629f2_session1_listb_naming_trial130_stapler.wav,1,b,naming,130,stapler,749,correct,NA,May  4 2023 14:15:59,Radhika,1
629f2,629f2_session1_listb_naming_trial131_tooth.wav,1,b,naming,131,tooth,1148,correct,NA,May  4 2023 14:16:15,Radhika,1
629f2,629f2_session1_listb_naming_trial132_nose.wav,1,b,naming,132,nose,744,correct,NA,May  4 2023 14:16:26,Radhika,1
629f2,629f2_session1_listb_naming_trial133_umbrella.wav,1,b,naming,133,umbrella,670,correct,NA,May  4 2023 14:16:43,Radhika,1
629f2,629f2_session1_listb_naming_trial134_parachute.wav,1,b,naming,134,parachute,1545,correct,NA,May  4 2023 14:16:55,Radhika,1
629f2,629f2_session1_listb_naming_trial135_handle.wav,1,b,naming,135,handle,2302,correct,NA,May  4 2023 14:17:30,Radhika,1
629f2,629f2_session1_listb_naming_trial136_sheep.wav,1,b,naming,136,sheep,616,correct,NA,May  4 2023 14:17:58,Radhika,1
629f2,629f2_session1_listb_naming_trial137_devil.wav,1,b,naming,137,devil,803,correct,NA,May  4 2023 14:18:09,Radhika,1
629f2,629f2_session1_listb_naming_trial138_cactus.wav,1,b,naming,138,cactus,775,correct,NA,May  4 2023 14:18:37,Radhika,1
629f2,629f2_session1_listb_naming_trial139_shark.wav,1,b,naming,139,shark,1274,correct,NA,May  4 2023 14:18:51,Radhika,1
629f2,629f2_session1_listb_naming_trial140_leaf.wav,1,b,naming,140,leaf,922,correct,NA,May  4 2023 14:19:07,Radhika,1
629f2,629f2_session1_listb_naming_trial141_well.wav,1,b,naming,141,well,1319,correct,NA,May  4 2023 14:19:16,Radhika,1
629f2,629f2_session1_listb_naming_trial142_pumpkin.wav,1,b,naming,142,pumpkin,1290,correct,NA,May  4 2023 14:19:32,Radhika,1
629f2,629f2_session1_listb_naming_trial143_bedroom.wav,1,b,naming,143,bedroom,1289,correct,NA,May  4 2023 14:19:45,Radhika,1
629f2,629f2_session1_listb_naming_trial144_desert.wav,1,b,naming,144,desert,1821,correct,NA,May  4 2023 14:20:03,Radhika,1
629f2,629f2_session1_listb_naming_trial145_bible.wav,1,b,naming,145,bible,1140,correct,NA,May  4 2023 14:20:15,Radhika,1
629f2,629f2_session1_listb_naming_trial146_pizza.wav,1,b,naming,146,pizza,1165,correct,NA,May  4 2023 14:20:31,Radhika,1
629f2,629f2_session1_listb_naming_trial147_torch.wav,1,b,naming,147,torch,1279,correct,NA,May  4 2023 14:20:43,Radhika,1
629f2,629f2_session1_listb_naming_trial148_banana.wav,1,b,naming,148,banana,766,correct,NA,May  4 2023 14:21:01,Radhika,1
629f2,629f2_session1_listb_naming_trial149_fan.wav,1,b,naming,149,fan,1117,correct,NA,May  4 2023 14:21:20,Radhika,1
629f2,629f2_session1_listb_naming_trial150_nurse.wav,1,b,naming,150,nurse,909,correct,NA,May  4 2023 14:21:38,Radhika,1
