Participant_ID,File_Name,Session,List,Type_Trial,Trial_Nbr,Target,RT,Response_Trial,Comment,Date_Correction,Assessor_Name,Processed
63288,63288_session1_lista_naming_trial001_suitcase.wav,1,a,naming,1,suitcase,876,correct,NA,Dec 13 2022 10:22:15,Agnieszka,1
63288,63288_session1_lista_naming_trial002_lawnmower.wav,1,a,naming,2,lawnmower,709,correct,NA,Dec 13 2022 10:22:43,Agnieszka,1
63288,63288_session1_lista_naming_trial003_potato.wav,1,a,naming,3,potato,610,correct,NA,Dec 13 2022 10:23:11,Agnieszka,1
63288,63288_session1_lista_naming_trial004_tray.wav,1,a,naming,4,tray,722,correct,NA,Dec 13 2022 10:24:48,Agnieszka,1
63288,63288_session1_lista_naming_trial005_jellyfish.wav,1,a,naming,5,jellyfish,1126,correct,NA,Dec 13 2022 10:28:03,Agnieszka,1
63288,63288_session1_lista_naming_trial006_map.wav,1,a,naming,6,map,1227,correct,NA,Dec 13 2022 10:28:14,Agnieszka,1
63288,63288_session1_lista_naming_trial007_drawer.wav,1,a,naming,7,drawer,851,correct,NA,Dec 13 2022 10:28:29,Agnieszka,1
63288,63288_session1_lista_naming_trial008_submarine.wav,1,a,naming,8,submarine,-1,wrong_word,NA,Dec 13 2022 10:28:38,Agnieszka,1
63288,63288_session1_lista_naming_trial009_bull.wav,1,a,naming,9,bull,994,correct,NA,Dec 13 2022 10:29:00,Agnieszka,1
63288,63288_session1_lista_naming_trial010_fence.wav,1,a,naming,10,fence,718,correct,NA,Dec 13 2022 10:29:13,Agnieszka,1
63288,63288_session1_lista_naming_trial011_bear.wav,1,a,naming,11,bear,697,correct,NA,Dec 13 2022 10:29:42,Agnieszka,1
63288,63288_session1_lista_naming_trial012_dice.wav,1,a,naming,12,dice,657,correct,NA,Dec 13 2022 10:29:51,Agnieszka,1
63288,63288_session1_lista_naming_trial013_train.wav,1,a,naming,13,train,705,correct,NA,Dec 13 2022 10:30:04,Agnieszka,1
63288,63288_session1_lista_naming_trial014_pepper.wav,1,a,naming,14,pepper,778,correct,NA,Dec 13 2022 10:30:11,Agnieszka,1
63288,63288_session1_lista_naming_trial015_sword.wav,1,a,naming,15,sword,664,correct,NA,Dec 13 2022 10:30:27,Agnieszka,1
63288,63288_session1_lista_naming_trial016_star.wav,1,a,naming,16,star,492,correct,NA,Dec 13 2022 10:33:53,Agnieszka,1
63288,63288_session1_lista_naming_trial017_bottle.wav,1,a,naming,17,bottle,645,correct,NA,Dec 13 2022 10:34:07,Agnieszka,1
63288,63288_session1_lista_naming_trial018_sweet.wav,1,a,naming,18,sweet,616,correct,NA,Dec 13 2022 10:34:15,Agnieszka,1
63288,63288_session1_lista_naming_trial019_island.wav,1,a,naming,19,island,1004,correct,NA,Dec 13 2022 10:34:36,Agnieszka,1
63288,63288_session1_lista_naming_trial020_scissors.wav,1,a,naming,20,scissors,571,correct,NA,Dec 13 2022 10:34:56,Agnieszka,1
63288,63288_session1_lista_naming_trial021_bone.wav,1,a,naming,21,bone,603,correct,NA,Dec 13 2022 10:35:06,Agnieszka,1
63288,63288_session1_lista_naming_trial022_wall.wav,1,a,naming,22,wall,933,correct,NA,Dec 13 2022 10:35:22,Agnieszka,1
63288,63288_session1_lista_naming_trial023_plumber.wav,1,a,naming,23,plumber,1164,correct,NA,Dec 13 2022 10:35:40,Agnieszka,1
63288,63288_session1_lista_naming_trial024_rabbit.wav,1,a,naming,24,rabbit,766,correct,NA,Dec 13 2022 10:35:48,Agnieszka,1
63288,63288_session1_lista_naming_trial025_puppet.wav,1,a,naming,25,puppet,-1,wrong_word,NA,Dec 13 2022 10:35:58,Agnieszka,1
63288,63288_session1_lista_naming_trial026_flag.wav,1,a,naming,26,flag,782,correct,NA,Dec 13 2022 10:38:24,Agnieszka,1
63288,63288_session1_lista_naming_trial027_fireplace.wav,1,a,naming,27,fireplace,1405,correct,NA,Dec 13 2022 10:39:12,Agnieszka,1
63288,63288_session1_lista_naming_trial028_rhino.wav,1,a,naming,28,rhino,888,correct,NA,Dec 13 2022 10:39:39,Agnieszka,1
63288,63288_session1_lista_naming_trial029_hat.wav,1,a,naming,29,hat,711,correct,NA,Dec 13 2022 10:41:23,Agnieszka,1
63288,63288_session1_lista_naming_trial030_soap.wav,1,a,naming,30,soap,741,correct,NA,Dec 13 2022 10:41:47,Agnieszka,1
63288,63288_session1_lista_naming_trial031_elbow.wav,1,a,naming,31,elbow,809,correct,NA,Dec 13 2022 10:42:06,Agnieszka,1
63288,63288_session1_lista_naming_trial032_clown.wav,1,a,naming,32,clown,-1,wrong_word,NA,Dec 13 2022 10:42:14,Agnieszka,1
63288,63288_session1_lista_naming_trial033_key.wav,1,a,naming,33,key,713,correct,NA,Dec 13 2022 10:42:34,Agnieszka,1
63288,63288_session1_lista_naming_trial034_pipe.wav,1,a,naming,34,pipe,958,correct,NA,Dec 13 2022 10:42:57,Agnieszka,1
63288,63288_session1_lista_naming_trial035_fox.wav,1,a,naming,35,fox,854,correct,NA,Dec 13 2022 10:43:21,Agnieszka,1
63288,63288_session1_lista_naming_trial036_bracelet.wav,1,a,naming,36,bracelet,-1,no_resp,NA,Dec 13 2022 10:43:29,Agnieszka,1
63288,63288_session1_lista_naming_trial037_dummy.wav,1,a,naming,37,dummy,768,correct,NA,Dec 13 2022 10:45:22,Agnieszka,1
63288,63288_session1_lista_naming_trial038_book.wav,1,a,naming,38,book,725,correct,NA,Dec 13 2022 10:45:35,Agnieszka,1
63288,63288_session1_lista_naming_trial039_beak.wav,1,a,naming,39,beak,-1,wrong_word,NA,Dec 13 2022 10:45:45,Agnieszka,1
63288,63288_session1_lista_naming_trial040_cherry.wav,1,a,naming,40,cherry,1250,correct,NA,Dec 13 2022 10:46:21,Agnieszka,1
63288,63288_session1_lista_naming_trial041_owl.wav,1,a,naming,41,owl,741,correct,NA,Dec 13 2022 10:46:46,Agnieszka,1
63288,63288_session1_lista_naming_trial042_butter.wav,1,a,naming,42,butter,1456,correct,NA,Dec 13 2022 10:47:05,Agnieszka,1
63288,63288_session1_lista_naming_trial043_suit.wav,1,a,naming,43,suit,708,correct,NA,Dec 13 2022 10:49:36,Agnieszka,1
63288,63288_session1_lista_naming_trial044_shield.wav,1,a,naming,44,shield,855,correct,NA,Dec 13 2022 10:49:47,Agnieszka,1
63288,63288_session1_lista_naming_trial045_doctor.wav,1,a,naming,45,doctor,880,correct,NA,Dec 13 2022 10:50:00,Agnieszka,1
63288,63288_session1_lista_naming_trial046_bike.wav,1,a,naming,46,bike,645,correct,NA,Dec 13 2022 10:51:06,Agnieszka,1
63288,63288_session1_lista_naming_trial047_pineapple.wav,1,a,naming,47,pineapple,868,correct,NA,Dec 13 2022 10:51:14,Agnieszka,1
63288,63288_session1_lista_naming_trial048_thumb.wav,1,a,naming,48,thumb,596,correct,NA,Dec 13 2022 10:51:59,Agnieszka,1
63288,63288_session1_lista_naming_trial049_bell.wav,1,a,naming,49,bell,941,correct,NA,Dec 13 2022 10:52:06,Agnieszka,1
63288,63288_session1_lista_naming_trial050_bullet.wav,1,a,naming,50,bullet,842,correct,NA,Dec 13 2022 10:52:16,Agnieszka,1
63288,63288_session1_lista_naming_trial051_zip.wav,1,a,naming,51,zip,768,correct,NA,Dec 13 2022 10:52:58,Agnieszka,1
63288,63288_session1_lista_naming_trial052_glove.wav,1,a,naming,52,glove,1011,correct,NA,Dec 13 2022 10:53:17,Agnieszka,1
63288,63288_session1_lista_naming_trial053_castle.wav,1,a,naming,53,castle,775,correct,NA,Dec 13 2022 10:53:29,Agnieszka,1
63288,63288_session1_lista_naming_trial054_rose.wav,1,a,naming,54,rose,676,correct,NA,Dec 13 2022 10:53:36,Agnieszka,1
63288,63288_session1_lista_naming_trial055_cork.wav,1,a,naming,55,cork,898,correct,NA,Dec 13 2022 10:53:49,Agnieszka,1
63288,63288_session1_lista_naming_trial056_mouth.wav,1,a,naming,56,mouth,671,correct,NA,Dec 13 2022 10:54:08,Agnieszka,1
63288,63288_session1_lista_naming_trial057_mountain.wav,1,a,naming,57,mountain,-1,wrong_word,NA,Dec 13 2022 10:54:16,Agnieszka,1
63288,63288_session1_lista_naming_trial058_lung.wav,1,a,naming,58,lung,944,correct,NA,Dec 13 2022 10:54:27,Agnieszka,1
63288,63288_session1_lista_naming_trial059_kangaroo.wav,1,a,naming,59,kangaroo,890,correct,NA,Dec 13 2022 10:54:39,Agnieszka,1
63288,63288_session1_lista_naming_trial060_drum.wav,1,a,naming,60,drum,883,correct,NA,Dec 13 2022 10:55:01,Agnieszka,1
63288,63288_session1_lista_naming_trial061_coat.wav,1,a,naming,61,coat,1014,correct,NA,Dec 13 2022 10:55:12,Agnieszka,1
63288,63288_session1_lista_naming_trial062_avocado.wav,1,a,naming,62,avocado,1023,correct,NA,Dec 13 2022 10:55:33,Agnieszka,1
63288,63288_session1_lista_naming_trial063_ear.wav,1,a,naming,63,ear,743,correct,NA,Dec 13 2022 10:55:45,Agnieszka,1
63288,63288_session1_lista_naming_trial064_nest.wav,1,a,naming,64,nest,1919,correct,NA,Dec 13 2022 10:55:52,Agnieszka,1
63288,63288_session1_lista_naming_trial065_ghost.wav,1,a,naming,65,ghost,688,correct,NA,Dec 13 2022 11:02:11,Agnieszka,1
63288,63288_session1_lista_naming_trial066_tap.wav,1,a,naming,66,tap,759,correct,NA,Dec 13 2022 11:02:19,Agnieszka,1
63288,63288_session1_lista_naming_trial067_koala.wav,1,a,naming,67,koala,1352,correct,NA,Dec 13 2022 11:02:28,Agnieszka,1
63288,63288_session1_lista_naming_trial068_heel.wav,1,a,naming,68,heel,590,correct,NA,Dec 13 2022 11:02:37,Agnieszka,1
63288,63288_session1_lista_naming_trial069_teacher.wav,1,a,naming,69,teacher,813,correct,NA,Dec 13 2022 11:02:48,Agnieszka,1
63288,63288_session1_lista_naming_trial070_crab.wav,1,a,naming,70,crab,651,correct,NA,Dec 13 2022 11:02:55,Agnieszka,1
63288,63288_session1_lista_naming_trial071_sausage.wav,1,a,naming,71,sausage,578,correct,NA,Dec 13 2022 11:03:06,Agnieszka,1
63288,63288_session1_lista_naming_trial072_swan.wav,1,a,naming,72,swan,619,correct,NA,Dec 13 2022 11:03:13,Agnieszka,1
63288,63288_session1_lista_naming_trial073_gym.wav,1,a,naming,73,gym,1345,correct,NA,Dec 13 2022 11:03:21,Agnieszka,1
63288,63288_session1_lista_naming_trial074_hippo.wav,1,a,naming,74,hippo,1227,correct,NA,Dec 13 2022 11:03:35,Agnieszka,1
63288,63288_session1_lista_naming_trial075_wheelbarrow.wav,1,a,naming,75,wheelbarrow,702,correct,NA,Dec 13 2022 11:03:47,Agnieszka,1
63288,63288_session1_lista_naming_trial076_pear.wav,1,a,naming,76,pear,-1,disfluency,NA,Dec 13 2022 11:04:08,Agnieszka,1
63288,63288_session1_lista_naming_trial077_helicopter.wav,1,a,naming,77,helicopter,722,correct,NA,Dec 13 2022 11:04:43,Agnieszka,1
63288,63288_session1_lista_naming_trial078_fairy.wav,1,a,naming,78,fairy,829,correct,NA,Dec 13 2022 11:12:32,Agnieszka,1
63288,63288_session1_lista_naming_trial079_whale.wav,1,a,naming,79,whale,782,correct,NA,Dec 13 2022 11:12:44,Agnieszka,1
63288,63288_session1_lista_naming_trial080_mermaid.wav,1,a,naming,80,mermaid,1119,correct,NA,Dec 13 2022 11:12:52,Agnieszka,1
63288,63288_session1_lista_naming_trial081_comb.wav,1,a,naming,81,comb,874,correct,NA,Dec 13 2022 11:13:00,Agnieszka,1
63288,63288_session1_lista_naming_trial082_lighthouse.wav,1,a,naming,82,lighthouse,1055,correct,NA,Dec 13 2022 11:13:08,Agnieszka,1
63288,63288_session1_lista_naming_trial083_doughnut.wav,1,a,naming,83,doughnut,718,correct,NA,Dec 13 2022 11:13:16,Agnieszka,1
63288,63288_session1_lista_naming_trial084_rocket.wav,1,a,naming,84,rocket,705,correct,NA,Dec 13 2022 11:13:28,Agnieszka,1
63288,63288_session1_lista_naming_trial085_pencil.wav,1,a,naming,85,pencil,654,correct,NA,Dec 13 2022 11:13:36,Agnieszka,1
63288,63288_session1_lista_naming_trial086_butterfly.wav,1,a,naming,86,butterfly,864,correct,NA,Dec 13 2022 11:13:44,Agnieszka,1
63288,63288_session1_lista_naming_trial087_candle.wav,1,a,naming,87,candle,766,correct,NA,Dec 13 2022 11:13:57,Agnieszka,1
63288,63288_session1_lista_naming_trial088_arrow.wav,1,a,naming,88,arrow,-1,disfluency,NA,Dec 13 2022 11:14:08,Agnieszka,1
63288,63288_session1_lista_naming_trial089_knife.wav,1,a,naming,89,knife,737,correct,NA,Dec 13 2022 11:14:25,Agnieszka,1
63288,63288_session1_lista_naming_trial090_tunnel.wav,1,a,naming,90,tunnel,1071,correct,NA,Dec 13 2022 11:14:37,Agnieszka,1
63288,63288_session1_lista_naming_trial091_flipper.wav,1,a,naming,91,flipper,1062,correct,NA,Dec 13 2022 11:14:57,Agnieszka,1
63288,63288_session1_lista_naming_trial092_wing.wav,1,a,naming,92,wing,1094,correct,NA,Dec 13 2022 11:15:09,Agnieszka,1
63288,63288_session1_lista_naming_trial093_windmill.wav,1,a,naming,93,windmill,1677,correct,NA,Dec 13 2022 11:15:16,Agnieszka,1
63288,63288_session1_lista_naming_trial094_onion.wav,1,a,naming,94,onion,1062,correct,NA,Dec 13 2022 11:15:32,Agnieszka,1
63288,63288_session1_lista_naming_trial095_sun.wav,1,a,naming,95,sun,635,correct,NA,Dec 13 2022 11:15:39,Agnieszka,1
63288,63288_session1_lista_naming_trial096_limo.wav,1,a,naming,96,limo,734,correct,NA,Dec 13 2022 11:15:55,Agnieszka,1
63288,63288_session1_lista_naming_trial097_lighter.wav,1,a,naming,97,lighter,731,correct,NA,Dec 13 2022 11:16:10,Agnieszka,1
63288,63288_session1_lista_naming_trial098_judge.wav,1,a,naming,98,judge,1807,correct,NA,Dec 13 2022 11:16:20,Agnieszka,1
63288,63288_session1_lista_naming_trial099_goat.wav,1,a,naming,99,goat,1135,correct,NA,Dec 13 2022 11:16:29,Agnieszka,1
63288,63288_session1_lista_naming_trial100_shower.wav,1,a,naming,100,shower,664,correct,NA,Dec 13 2022 11:16:39,Agnieszka,1
63288,63288_session1_lista_naming_trial101_caterpillar.wav,1,a,naming,101,caterpillar,-1,wrong_word,NA,Dec 13 2022 11:16:50,Agnieszka,1
63288,63288_session1_lista_naming_trial102_camel.wav,1,a,naming,102,camel,1740,correct,NA,Dec 13 2022 11:16:58,Agnieszka,1
63288,63288_session1_lista_naming_trial103_bus.wav,1,a,naming,103,bus,711,correct,NA,Dec 13 2022 11:17:12,Agnieszka,1
63288,63288_session1_lista_naming_trial104_magnet.wav,1,a,naming,104,magnet,845,correct,NA,Dec 13 2022 11:17:33,Agnieszka,1
63288,63288_session1_lista_naming_trial105_net.wav,1,a,naming,105,net,651,correct,NA,Dec 13 2022 11:17:43,Agnieszka,1
63288,63288_session1_lista_naming_trial106_zebra.wav,1,a,naming,106,zebra,-1,uncertain,sounds like "nzebra" or "mzebra",Dec 13 2022 11:18:55,Agnieszka,1
63288,63288_session1_lista_naming_trial107_orange.wav,1,a,naming,107,orange,1094,correct,NA,Dec 13 2022 11:19:04,Agnieszka,1
63288,63288_session1_lista_naming_trial108_robot.wav,1,a,naming,108,robot,810,correct,NA,Dec 13 2022 11:19:11,Agnieszka,1
63288,63288_session1_lista_naming_trial109_wave.wav,1,a,naming,109,wave,1313,correct,NA,Dec 13 2022 11:19:21,Agnieszka,1
63288,63288_session1_lista_naming_trial110_snake.wav,1,a,naming,110,snake,708,correct,NA,Dec 13 2022 11:19:32,Agnieszka,1
63288,63288_session1_lista_naming_trial111_boxer.wav,1,a,naming,111,boxer,842,correct,NA,Dec 13 2022 11:19:40,Agnieszka,1
63288,63288_session1_lista_naming_trial112_kiwi.wav,1,a,naming,112,kiwi,943,correct,NA,Dec 13 2022 11:19:55,Agnieszka,1
63288,63288_session1_lista_naming_trial113_carrot.wav,1,a,naming,113,carrot,753,correct,NA,Dec 13 2022 11:20:07,Agnieszka,1
63288,63288_session1_lista_naming_trial114_fork.wav,1,a,naming,114,fork,640,correct,NA,Dec 13 2022 11:20:33,Agnieszka,1
63288,63288_session1_lista_naming_trial115_fridge.wav,1,a,naming,115,fridge,619,correct,NA,Dec 13 2022 11:20:43,Agnieszka,1
63288,63288_session1_lista_naming_trial116_battery.wav,1,a,naming,116,battery,836,correct,NA,Dec 13 2022 11:20:55,Agnieszka,1
63288,63288_session1_lista_naming_trial117_flower.wav,1,a,naming,117,flower,683,correct,NA,Dec 13 2022 11:21:07,Agnieszka,1
63288,63288_session1_lista_naming_trial118_basket.wav,1,a,naming,118,basket,724,correct,NA,Dec 13 2022 11:21:16,Agnieszka,1
63288,63288_session1_lista_naming_trial119_kitchen.wav,1,a,naming,119,kitchen,756,correct,NA,Dec 13 2022 11:21:27,Agnieszka,1
63288,63288_session1_lista_naming_trial120_donkey.wav,1,a,naming,120,donkey,1696,correct,NA,Dec 13 2022 11:21:35,Agnieszka,1
63288,63288_session1_lista_naming_trial121_compass.wav,1,a,naming,121,compass,915,correct,NA,Dec 13 2022 11:21:44,Agnieszka,1
63288,63288_session1_lista_naming_trial122_kite.wav,1,a,naming,122,kite,903,correct,NA,Dec 13 2022 11:21:54,Agnieszka,1
63288,63288_session1_lista_naming_trial123_tie.wav,1,a,naming,123,tie,638,correct,NA,Dec 13 2022 11:22:04,Agnieszka,1
63288,63288_session1_lista_naming_trial124_tree.wav,1,a,naming,124,tree,915,correct,NA,Dec 13 2022 11:22:13,Agnieszka,1
63288,63288_session1_lista_naming_trial125_olive.wav,1,a,naming,125,olive,1966,correct,NA,Dec 13 2022 11:22:31,Agnieszka,1
63288,63288_session1_lista_naming_trial126_triangle.wav,1,a,naming,126,triangle,610,correct,NA,Dec 13 2022 11:22:45,Agnieszka,1
63288,63288_session1_lista_naming_trial127_saw.wav,1,a,naming,127,saw,620,correct,NA,Dec 13 2022 11:23:08,Agnieszka,1
63288,63288_session1_lista_naming_trial128_pocket.wav,1,a,naming,128,pocket,898,correct,NA,Dec 13 2022 11:23:26,Agnieszka,1
63288,63288_session1_lista_naming_trial129_squirrel.wav,1,a,naming,129,squirrel,664,correct,NA,Dec 13 2022 11:23:41,Agnieszka,1
63288,63288_session1_lista_naming_trial130_queen.wav,1,a,naming,130,queen,1014,correct,NA,Dec 13 2022 11:23:53,Agnieszka,1
63288,63288_session1_lista_naming_trial131_lamp.wav,1,a,naming,131,lamp,1562,correct,NA,Dec 13 2022 11:24:11,Agnieszka,1
63288,63288_session1_lista_naming_trial132_skirt.wav,1,a,naming,132,skirt,1291,correct,NA,Dec 13 2022 11:24:21,Agnieszka,1
63288,63288_session1_lista_naming_trial133_tomato.wav,1,a,naming,133,tomato,686,correct,NA,Dec 13 2022 11:27:44,Agnieszka,1
63288,63288_session1_lista_naming_trial134_arm.wav,1,a,naming,134,arm,899,correct,NA,Dec 13 2022 11:27:52,Agnieszka,1
63288,63288_session1_lista_naming_trial135_dress.wav,1,a,naming,135,dress,1508,correct,NA,Dec 13 2022 11:27:59,Agnieszka,1
63288,63288_session1_lista_naming_trial136_shoe.wav,1,a,naming,136,shoe,718,correct,NA,Dec 13 2022 11:28:07,Agnieszka,1
63288,63288_session1_lista_naming_trial137_curtain.wav,1,a,naming,137,curtain,887,correct,NA,Dec 13 2022 11:28:14,Agnieszka,1
63288,63288_session1_lista_naming_trial138_tractor.wav,1,a,naming,138,tractor,676,correct,NA,Dec 13 2022 11:28:24,Agnieszka,1
63288,63288_session1_lista_naming_trial139_bib.wav,1,a,naming,139,bib,1337,correct,NA,Dec 13 2022 11:28:43,Agnieszka,1
63288,63288_session1_lista_naming_trial140_ruler.wav,1,a,naming,140,ruler,804,correct,NA,Dec 13 2022 11:28:53,Agnieszka,1
63288,63288_session1_lista_naming_trial141_medal.wav,1,a,naming,141,medal,775,correct,NA,Dec 13 2022 11:29:05,Agnieszka,1
63288,63288_session1_lista_naming_trial142_peg.wav,1,a,naming,142,peg,1253,correct,NA,Dec 13 2022 11:29:14,Agnieszka,1
63288,63288_session1_lista_naming_trial143_apple.wav,1,a,naming,143,apple,762,correct,NA,Dec 13 2022 11:29:22,Agnieszka,1
63288,63288_session1_lista_naming_trial144_tongue.wav,1,a,naming,144,tongue,-1,wrong_word,NA,Dec 13 2022 11:29:55,Agnieszka,1
63288,63288_session1_lista_naming_trial145_computer.wav,1,a,naming,145,computer,756,correct,NA,Dec 13 2022 11:30:06,Agnieszka,1
63288,63288_session1_lista_naming_trial146_circle.wav,1,a,naming,146,circle,766,correct,NA,Dec 13 2022 11:30:17,Agnieszka,1
63288,63288_session1_lista_naming_trial147_tiger.wav,1,a,naming,147,tiger,-1,wrong_word,NA,Dec 13 2022 11:30:25,Agnieszka,1
63288,63288_session1_lista_naming_trial148_bench.wav,1,a,naming,148,bench,-1,wrong_word,NA,Dec 13 2022 11:30:34,Agnieszka,1
63288,63288_session1_lista_naming_trial149_tattoo.wav,1,a,naming,149,tattoo,-1,wrong_word,NA,Dec 13 2022 11:30:45,Agnieszka,1
63288,63288_session1_lista_naming_trial150_tambourine.wav,1,a,naming,150,tambourine,1250,correct,NA,Dec 13 2022 11:30:54,Agnieszka,1
