Participant_ID,File_Name,Session,List,Type_Trial,Trial_Nbr,Target,RT,Response_Trial,Comment,Date_Correction,Assessor_Name,Processed
5f5a2,5f5a2_session1_lista_naming_trial001_avocado.wav,1,a,naming,1,avocado,890,correct,NA,Mar 10 2023 13:46:08,Agnieszka,1
5f5a2,5f5a2_session1_lista_naming_trial002_curtain.wav,1,a,naming,2,curtain,1141,correct,NA,Mar 10 2023 13:46:14,Agnieszka,1
5f5a2,5f5a2_session1_lista_naming_trial003_windmill.wav,1,a,naming,3,windmill,899,correct,NA,Mar 10 2023 13:46:22,Agnieszka,1
5f5a2,5f5a2_session1_lista_naming_trial004_bone.wav,1,a,naming,4,bone,848,correct,NA,Mar 10 2023 13:46:30,Agnieszka,1
5f5a2,5f5a2_session1_lista_naming_trial005_nest.wav,1,a,naming,5,nest,887,correct,NA,Mar 10 2023 13:46:38,Agnieszka,1
5f5a2,5f5a2_session1_lista_naming_trial006_lamp.wav,1,a,naming,6,lamp,855,correct,NA,Mar 10 2023 13:46:48,Agnieszka,1
5f5a2,5f5a2_session1_lista_naming_trial007_doughnut.wav,1,a,naming,7,doughnut,832,correct,NA,Mar 10 2023 13:46:56,Agnieszka,1
5f5a2,5f5a2_session1_lista_naming_trial008_butterfly.wav,1,a,naming,8,butterfly,858,correct,NA,Mar 10 2023 13:47:04,Agnieszka,1
5f5a2,5f5a2_session1_lista_naming_trial009_coat.wav,1,a,naming,9,coat,817,correct,NA,Mar 10 2023 13:47:13,Agnieszka,1
5f5a2,5f5a2_session1_lista_naming_trial010_shield.wav,1,a,naming,10,shield,1138,correct,NA,Mar 10 2023 13:47:26,Agnieszka,1
5f5a2,5f5a2_session1_lista_naming_trial011_onion.wav,1,a,naming,11,onion,1024,correct,NA,Mar 10 2023 13:47:33,Agnieszka,1
5f5a2,5f5a2_session1_lista_naming_trial012_doctor.wav,1,a,naming,12,doctor,810,correct,NA,Mar 10 2023 13:47:41,Agnieszka,1
5f5a2,5f5a2_session1_lista_naming_trial013_lung.wav,1,a,naming,13,lung,998,correct,NA,Mar 10 2023 13:47:52,Agnieszka,1
5f5a2,5f5a2_session1_lista_naming_trial014_robot.wav,1,a,naming,14,robot,817,correct,NA,Mar 10 2023 13:48:00,Agnieszka,1
5f5a2,5f5a2_session1_lista_naming_trial015_kite.wav,1,a,naming,15,kite,1132,correct,NA,Mar 10 2023 13:48:16,Agnieszka,1
5f5a2,5f5a2_session1_lista_naming_trial016_kiwi.wav,1,a,naming,16,kiwi,1766,correct,NA,Mar 10 2023 13:48:31,Agnieszka,1
5f5a2,5f5a2_session1_lista_naming_trial017_lawnmower.wav,1,a,naming,17,lawnmower,1100,correct,NA,Mar 10 2023 13:48:38,Agnieszka,1
5f5a2,5f5a2_session1_lista_naming_trial018_flower.wav,1,a,naming,18,flower,963,correct,NA,Mar 10 2023 13:48:46,Agnieszka,1
5f5a2,5f5a2_session1_lista_naming_trial019_computer.wav,1,a,naming,19,computer,797,correct,NA,Mar 10 2023 13:49:34,Agnieszka,1
5f5a2,5f5a2_session1_lista_naming_trial020_pipe.wav,1,a,naming,20,pipe,1052,correct,NA,Mar 10 2023 13:49:43,Agnieszka,1
5f5a2,5f5a2_session1_lista_naming_trial021_heel.wav,1,a,naming,21,heel,-1,wrong_word,NA,Mar 10 2023 13:49:51,Agnieszka,1
5f5a2,5f5a2_session1_lista_naming_trial022_tray.wav,1,a,naming,22,tray,941,correct,NA,Mar 10 2023 13:50:54,Agnieszka,1
5f5a2,5f5a2_session1_lista_naming_trial023_hippo.wav,1,a,naming,23,hippo,-1,wrong_word,NA,Mar 10 2023 13:51:00,Agnieszka,1
5f5a2,5f5a2_session1_lista_naming_trial024_koala.wav,1,a,naming,24,koala,1046,correct,NA,Mar 10 2023 13:51:08,Agnieszka,1
5f5a2,5f5a2_session1_lista_naming_trial025_queen.wav,1,a,naming,25,queen,861,correct,NA,Mar 10 2023 13:51:23,Agnieszka,1
5f5a2,5f5a2_session1_lista_naming_trial026_wall.wav,1,a,naming,26,wall,1457,correct,NA,Mar 10 2023 13:51:33,Agnieszka,1
5f5a2,5f5a2_session1_lista_naming_trial027_sweet.wav,1,a,naming,27,sweet,810,correct,NA,Mar 10 2023 13:51:41,Agnieszka,1
5f5a2,5f5a2_session1_lista_naming_trial028_scissors.wav,1,a,naming,28,scissors,836,correct,NA,Mar 10 2023 13:51:48,Agnieszka,1
5f5a2,5f5a2_session1_lista_naming_trial029_pepper.wav,1,a,naming,29,pepper,979,correct,NA,Mar 10 2023 13:51:56,Agnieszka,1
5f5a2,5f5a2_session1_lista_naming_trial030_helicopter.wav,1,a,naming,30,helicopter,836,correct,NA,Mar 10 2023 13:52:04,Agnieszka,1
5f5a2,5f5a2_session1_lista_naming_trial031_tunnel.wav,1,a,naming,31,tunnel,1001,correct,NA,Mar 10 2023 13:52:11,Agnieszka,1
5f5a2,5f5a2_session1_lista_naming_trial032_drawer.wav,1,a,naming,32,drawer,861,correct,NA,Mar 10 2023 13:52:18,Agnieszka,1
5f5a2,5f5a2_session1_lista_naming_trial033_suit.wav,1,a,naming,33,suit,890,correct,NA,Mar 10 2023 13:52:28,Agnieszka,1
5f5a2,5f5a2_session1_lista_naming_trial034_ghost.wav,1,a,naming,34,ghost,877,correct,NA,Mar 10 2023 13:52:36,Agnieszka,1
5f5a2,5f5a2_session1_lista_naming_trial035_olive.wav,1,a,naming,35,olive,1170,correct,NA,Mar 10 2023 13:52:47,Agnieszka,1
5f5a2,5f5a2_session1_lista_naming_trial036_fairy.wav,1,a,naming,36,fairy,1008,correct,NA,Mar 10 2023 13:53:02,Agnieszka,1
5f5a2,5f5a2_session1_lista_naming_trial037_clown.wav,1,a,naming,37,clown,788,correct,NA,Mar 10 2023 13:53:23,Agnieszka,1
5f5a2,5f5a2_session1_lista_naming_trial038_bullet.wav,1,a,naming,38,bullet,1027,correct,NA,Mar 10 2023 13:53:32,Agnieszka,1
5f5a2,5f5a2_session1_lista_naming_trial039_mouth.wav,1,a,naming,39,mouth,1247,correct,NA,Mar 10 2023 13:53:41,Agnieszka,1
5f5a2,5f5a2_session1_lista_naming_trial040_battery.wav,1,a,naming,40,battery,1183,correct,NA,Mar 10 2023 13:53:49,Agnieszka,1
5f5a2,5f5a2_session1_lista_naming_trial041_circle.wav,1,a,naming,41,circle,963,correct,NA,Mar 10 2023 13:54:00,Agnieszka,1
5f5a2,5f5a2_session1_lista_naming_trial042_puppet.wav,1,a,naming,42,puppet,1199,correct,NA,Mar 10 2023 13:54:08,Agnieszka,1
5f5a2,5f5a2_session1_lista_naming_trial043_peg.wav,1,a,naming,43,peg,1024,correct,NA,Mar 10 2023 13:54:17,Agnieszka,1
5f5a2,5f5a2_session1_lista_naming_trial044_thumb.wav,1,a,naming,44,thumb,1027,correct,NA,Mar 10 2023 13:54:28,Agnieszka,1
5f5a2,5f5a2_session1_lista_naming_trial045_fireplace.wav,1,a,naming,45,fireplace,-1,wrong_word,NA,Mar 10 2023 13:54:41,Agnieszka,1
5f5a2,5f5a2_session1_lista_naming_trial046_bracelet.wav,1,a,naming,46,bracelet,864,correct,NA,Mar 10 2023 13:54:48,Agnieszka,1
5f5a2,5f5a2_session1_lista_naming_trial047_submarine.wav,1,a,naming,47,submarine,1450,correct,NA,Mar 10 2023 13:55:03,Agnieszka,1
5f5a2,5f5a2_session1_lista_naming_trial048_basket.wav,1,a,naming,48,basket,966,correct,NA,Mar 10 2023 13:55:15,Agnieszka,1
5f5a2,5f5a2_session1_lista_naming_trial049_lighthouse.wav,1,a,naming,49,lighthouse,1403,correct,NA,Mar 10 2023 13:55:32,Agnieszka,1
5f5a2,5f5a2_session1_lista_naming_trial050_kangaroo.wav,1,a,naming,50,kangaroo,903,correct,NA,Mar 10 2023 13:55:40,Agnieszka,1
5f5a2,5f5a2_session1_lista_naming_trial051_kitchen.wav,1,a,naming,51,kitchen,890,correct,NA,Mar 10 2023 13:55:51,Agnieszka,1
5f5a2,5f5a2_session1_lista_naming_trial052_tambourine.wav,1,a,naming,52,tambourine,852,correct,NA,Mar 10 2023 13:55:59,Agnieszka,1
5f5a2,5f5a2_session1_lista_naming_trial053_whale.wav,1,a,naming,53,whale,960,correct,NA,Mar 10 2023 13:56:06,Agnieszka,1
5f5a2,5f5a2_session1_lista_naming_trial054_fence.wav,1,a,naming,54,fence,1151,correct,NA,Mar 10 2023 13:56:27,Agnieszka,1
5f5a2,5f5a2_session1_lista_naming_trial055_tractor.wav,1,a,naming,55,tractor,794,correct,NA,Mar 10 2023 13:56:37,Agnieszka,1
5f5a2,5f5a2_session1_lista_naming_trial056_hat.wav,1,a,naming,56,hat,766,correct,NA,Mar 10 2023 13:56:45,Agnieszka,1
5f5a2,5f5a2_session1_lista_naming_trial057_arrow.wav,1,a,naming,57,arrow,861,correct,NA,Mar 10 2023 14:08:47,Agnieszka,1
5f5a2,5f5a2_session1_lista_naming_trial058_plumber.wav,1,a,naming,58,plumber,1011,correct,NA,Mar 10 2023 14:08:56,Agnieszka,1
5f5a2,5f5a2_session1_lista_naming_trial059_sun.wav,1,a,naming,59,sun,832,correct,NA,Mar 10 2023 14:09:03,Agnieszka,1
5f5a2,5f5a2_session1_lista_naming_trial060_tattoo.wav,1,a,naming,60,tattoo,976,correct,NA,Mar 10 2023 14:09:12,Agnieszka,1
5f5a2,5f5a2_session1_lista_naming_trial061_map.wav,1,a,naming,61,map,1008,correct,NA,Mar 10 2023 14:09:19,Agnieszka,1
5f5a2,5f5a2_session1_lista_naming_trial062_rabbit.wav,1,a,naming,62,rabbit,887,correct,NA,Mar 10 2023 14:09:30,Agnieszka,1
5f5a2,5f5a2_session1_lista_naming_trial063_train.wav,1,a,naming,63,train,832,correct,NA,Mar 10 2023 14:09:37,Agnieszka,1
5f5a2,5f5a2_session1_lista_naming_trial064_donkey.wav,1,a,naming,64,donkey,1154,correct,NA,Mar 10 2023 14:09:45,Agnieszka,1
5f5a2,5f5a2_session1_lista_naming_trial065_pencil.wav,1,a,naming,65,pencil,845,correct,NA,Mar 10 2023 14:09:56,Agnieszka,1
5f5a2,5f5a2_session1_lista_naming_trial066_pocket.wav,1,a,naming,66,pocket,1275,correct,NA,Mar 10 2023 14:10:03,Agnieszka,1
5f5a2,5f5a2_session1_lista_naming_trial067_bench.wav,1,a,naming,67,bench,877,correct,NA,Mar 10 2023 14:10:12,Agnieszka,1
5f5a2,5f5a2_session1_lista_naming_trial068_apple.wav,1,a,naming,68,apple,788,correct,NA,Mar 10 2023 14:10:21,Agnieszka,1
5f5a2,5f5a2_session1_lista_naming_trial069_cherry.wav,1,a,naming,69,cherry,826,correct,NA,Mar 10 2023 14:10:28,Agnieszka,1
5f5a2,5f5a2_session1_lista_naming_trial070_key.wav,1,a,naming,70,key,1196,correct,NA,Mar 10 2023 14:10:40,Agnieszka,1
5f5a2,5f5a2_session1_lista_naming_trial071_shower.wav,1,a,naming,71,shower,871,correct,NA,Mar 10 2023 14:10:48,Agnieszka,1
5f5a2,5f5a2_session1_lista_naming_trial072_island.wav,1,a,naming,72,island,1157,correct,NA,Mar 10 2023 14:10:57,Agnieszka,1
5f5a2,5f5a2_session1_lista_naming_trial073_soap.wav,1,a,naming,73,soap,1205,correct,NA,Mar 10 2023 14:11:06,Agnieszka,1
5f5a2,5f5a2_session1_lista_naming_trial074_butter.wav,1,a,naming,74,butter,931,correct,NA,Mar 10 2023 14:11:13,Agnieszka,1
5f5a2,5f5a2_session1_lista_naming_trial075_bear.wav,1,a,naming,75,bear,858,correct,NA,Mar 10 2023 14:11:22,Agnieszka,1
5f5a2,5f5a2_session1_lista_naming_trial076_fridge.wav,1,a,naming,76,fridge,836,correct,NA,Mar 10 2023 14:11:31,Agnieszka,1
5f5a2,5f5a2_session1_lista_naming_trial077_caterpillar.wav,1,a,naming,77,caterpillar,874,correct,NA,Mar 10 2023 14:11:41,Agnieszka,1
5f5a2,5f5a2_session1_lista_naming_trial078_limo.wav,1,a,naming,78,limo,-1,wrong_word,NA,Mar 10 2023 14:11:47,Agnieszka,1
5f5a2,5f5a2_session1_lista_naming_trial079_sausage.wav,1,a,naming,79,sausage,1218,correct,NA,Mar 10 2023 14:11:55,Agnieszka,1
5f5a2,5f5a2_session1_lista_naming_trial080_rose.wav,1,a,naming,80,rose,903,correct,NA,Mar 10 2023 14:12:02,Agnieszka,1
5f5a2,5f5a2_session1_lista_naming_trial081_glove.wav,1,a,naming,81,glove,957,correct,NA,Mar 10 2023 14:12:14,Agnieszka,1
5f5a2,5f5a2_session1_lista_naming_trial082_medal.wav,1,a,naming,82,medal,874,correct,NA,Mar 10 2023 14:12:22,Agnieszka,1
5f5a2,5f5a2_session1_lista_naming_trial083_ear.wav,1,a,naming,83,ear,852,correct,NA,Mar 10 2023 14:12:30,Agnieszka,1
5f5a2,5f5a2_session1_lista_naming_trial084_carrot.wav,1,a,naming,84,carrot,890,correct,NA,Mar 10 2023 14:12:38,Agnieszka,1
5f5a2,5f5a2_session1_lista_naming_trial085_compass.wav,1,a,naming,85,compass,1727,correct,NA,Mar 10 2023 14:12:46,Agnieszka,1
5f5a2,5f5a2_session1_lista_naming_trial086_pineapple.wav,1,a,naming,86,pineapple,858,correct,NA,Mar 10 2023 14:12:54,Agnieszka,1
5f5a2,5f5a2_session1_lista_naming_trial087_zip.wav,1,a,naming,87,zip,893,correct,NA,Mar 10 2023 14:13:01,Agnieszka,1
5f5a2,5f5a2_session1_lista_naming_trial088_lighter.wav,1,a,naming,88,lighter,1017,correct,NA,Mar 10 2023 14:13:10,Agnieszka,1
5f5a2,5f5a2_session1_lista_naming_trial089_swan.wav,1,a,naming,89,swan,861,correct,NA,Mar 10 2023 14:13:17,Agnieszka,1
5f5a2,5f5a2_session1_lista_naming_trial090_dress.wav,1,a,naming,90,dress,836,correct,NA,Mar 10 2023 14:13:25,Agnieszka,1
5f5a2,5f5a2_session1_lista_naming_trial091_sword.wav,1,a,naming,91,sword,1008,correct,NA,Mar 10 2023 14:13:32,Agnieszka,1
5f5a2,5f5a2_session1_lista_naming_trial092_arm.wav,1,a,naming,92,arm,855,correct,NA,Mar 10 2023 14:13:40,Agnieszka,1
5f5a2,5f5a2_session1_lista_naming_trial093_bottle.wav,1,a,naming,93,bottle,871,correct,NA,Mar 10 2023 14:13:47,Agnieszka,1
5f5a2,5f5a2_session1_lista_naming_trial094_fork.wav,1,a,naming,94,fork,858,correct,NA,Mar 10 2023 14:13:55,Agnieszka,1
5f5a2,5f5a2_session1_lista_naming_trial095_suitcase.wav,1,a,naming,95,suitcase,848,correct,NA,Mar 10 2023 14:14:04,Agnieszka,1
5f5a2,5f5a2_session1_lista_naming_trial096_bike.wav,1,a,naming,96,bike,836,correct,NA,Mar 10 2023 14:14:12,Agnieszka,1
5f5a2,5f5a2_session1_lista_naming_trial097_shoe.wav,1,a,naming,97,shoe,778,correct,NA,Mar 10 2023 14:14:24,Agnieszka,1
5f5a2,5f5a2_session1_lista_naming_trial098_wave.wav,1,a,naming,98,wave,1301,correct,NA,Mar 10 2023 14:14:33,Agnieszka,1
5f5a2,5f5a2_session1_lista_naming_trial099_tiger.wav,1,a,naming,99,tiger,1196,correct,NA,Mar 10 2023 14:14:40,Agnieszka,1
5f5a2,5f5a2_session1_lista_naming_trial100_flag.wav,1,a,naming,100,flag,836,correct,NA,Mar 10 2023 14:14:50,Agnieszka,1
5f5a2,5f5a2_session1_lista_naming_trial101_ruler.wav,1,a,naming,101,ruler,817,correct,NA,Mar 10 2023 14:14:57,Agnieszka,1
5f5a2,5f5a2_session1_lista_naming_trial102_owl.wav,1,a,naming,102,owl,1272,correct,NA,Mar 10 2023 14:15:04,Agnieszka,1
5f5a2,5f5a2_session1_lista_naming_trial103_flipper.wav,1,a,naming,103,flipper,1622,correct,NA,Mar 10 2023 14:15:12,Agnieszka,1
5f5a2,5f5a2_session1_lista_naming_trial104_tap.wav,1,a,naming,104,tap,874,correct,NA,Mar 10 2023 14:15:20,Agnieszka,1
5f5a2,5f5a2_session1_lista_naming_trial105_bus.wav,1,a,naming,105,bus,1352,correct,NA,Mar 10 2023 14:15:28,Agnieszka,1
5f5a2,5f5a2_session1_lista_naming_trial106_snake.wav,1,a,naming,106,snake,1387,correct,NA,Mar 10 2023 14:15:36,Agnieszka,1
5f5a2,5f5a2_session1_lista_naming_trial107_candle.wav,1,a,naming,107,candle,938,correct,NA,Mar 10 2023 14:15:51,Agnieszka,1
5f5a2,5f5a2_session1_lista_naming_trial108_potato.wav,1,a,naming,108,potato,826,correct,NA,Mar 10 2023 14:16:01,Agnieszka,1
5f5a2,5f5a2_session1_lista_naming_trial109_camel.wav,1,a,naming,109,camel,1043,correct,NA,Mar 10 2023 14:16:10,Agnieszka,1
5f5a2,5f5a2_session1_lista_naming_trial110_bell.wav,1,a,naming,110,bell,848,correct,NA,Mar 10 2023 14:16:17,Agnieszka,1
5f5a2,5f5a2_session1_lista_naming_trial111_net.wav,1,a,naming,111,net,1275,correct,NA,Mar 10 2023 14:16:24,Agnieszka,1
5f5a2,5f5a2_session1_lista_naming_trial112_star.wav,1,a,naming,112,star,782,correct,NA,Mar 10 2023 14:16:32,Agnieszka,1
5f5a2,5f5a2_session1_lista_naming_trial113_goat.wav,1,a,naming,113,goat,1310,correct,NA,Mar 10 2023 14:16:39,Agnieszka,1
5f5a2,5f5a2_session1_lista_naming_trial114_triangle.wav,1,a,naming,114,triangle,1141,correct,NA,Mar 10 2023 14:16:50,Agnieszka,1
5f5a2,5f5a2_session1_lista_naming_trial115_squirrel.wav,1,a,naming,115,squirrel,877,correct,NA,Mar 10 2023 14:16:58,Agnieszka,1
5f5a2,5f5a2_session1_lista_naming_trial116_knife.wav,1,a,naming,116,knife,915,correct,NA,Mar 10 2023 14:17:08,Agnieszka,1
5f5a2,5f5a2_session1_lista_naming_trial117_pear.wav,1,a,naming,117,pear,772,correct,NA,Mar 10 2023 14:17:16,Agnieszka,1
5f5a2,5f5a2_session1_lista_naming_trial118_crab.wav,1,a,naming,118,crab,842,correct,NA,Mar 10 2023 14:17:24,Agnieszka,1
5f5a2,5f5a2_session1_lista_naming_trial119_bull.wav,1,a,naming,119,bull,938,correct,NA,Mar 10 2023 14:17:32,Agnieszka,1
5f5a2,5f5a2_session1_lista_naming_trial120_teacher.wav,1,a,naming,120,teacher,941,correct,NA,Mar 10 2023 14:17:41,Agnieszka,1
5f5a2,5f5a2_session1_lista_naming_trial121_rhino.wav,1,a,naming,121,rhino,1004,correct,NA,Mar 10 2023 14:17:49,Agnieszka,1
5f5a2,5f5a2_session1_lista_naming_trial122_saw.wav,1,a,naming,122,saw,941,correct,NA,Mar 10 2023 14:17:57,Agnieszka,1
5f5a2,5f5a2_session1_lista_naming_trial123_drum.wav,1,a,naming,123,drum,842,correct,NA,Mar 10 2023 14:18:05,Agnieszka,1
5f5a2,5f5a2_session1_lista_naming_trial124_zebra.wav,1,a,naming,124,zebra,860,correct,NA,Mar 10 2023 14:18:12,Agnieszka,1
5f5a2,5f5a2_session1_lista_naming_trial125_comb.wav,1,a,naming,125,comb,966,correct,NA,Mar 10 2023 14:18:21,Agnieszka,1
5f5a2,5f5a2_session1_lista_naming_trial126_skirt.wav,1,a,naming,126,skirt,973,correct,NA,Mar 10 2023 14:18:29,Agnieszka,1
5f5a2,5f5a2_session1_lista_naming_trial127_jellyfish.wav,1,a,naming,127,jellyfish,995,correct,NA,Mar 10 2023 14:18:42,Agnieszka,1
5f5a2,5f5a2_session1_lista_naming_trial128_dummy.wav,1,a,naming,128,dummy,832,correct,NA,Mar 10 2023 14:19:01,Agnieszka,1
5f5a2,5f5a2_session1_lista_naming_trial129_fox.wav,1,a,naming,129,fox,906,correct,NA,Mar 10 2023 14:19:09,Agnieszka,1
5f5a2,5f5a2_session1_lista_naming_trial130_tongue.wav,1,a,naming,130,tongue,1103,correct,NA,Mar 10 2023 14:19:18,Agnieszka,1
5f5a2,5f5a2_session1_lista_naming_trial131_tree.wav,1,a,naming,131,tree,797,correct,NA,Mar 10 2023 14:19:25,Agnieszka,1
5f5a2,5f5a2_session1_lista_naming_trial132_wing.wav,1,a,naming,132,wing,1460,correct,NA,Mar 10 2023 14:19:32,Agnieszka,1
5f5a2,5f5a2_session1_lista_naming_trial133_gym.wav,1,a,naming,133,gym,1059,correct,NA,Mar 10 2023 14:19:39,Agnieszka,1
5f5a2,5f5a2_session1_lista_naming_trial134_wheelbarrow.wav,1,a,naming,134,wheelbarrow,957,correct,NA,Mar 10 2023 14:19:47,Agnieszka,1
5f5a2,5f5a2_session1_lista_naming_trial135_elbow.wav,1,a,naming,135,elbow,973,correct,NA,Mar 10 2023 14:19:55,Agnieszka,1
5f5a2,5f5a2_session1_lista_naming_trial136_boxer.wav,1,a,naming,136,boxer,852,correct,NA,Mar 10 2023 14:20:02,Agnieszka,1
5f5a2,5f5a2_session1_lista_naming_trial137_bib.wav,1,a,naming,137,bib,1313,correct,NA,Mar 10 2023 14:20:09,Agnieszka,1
5f5a2,5f5a2_session1_lista_naming_trial138_judge.wav,1,a,naming,138,judge,1043,correct,NA,Mar 10 2023 14:20:17,Agnieszka,1
5f5a2,5f5a2_session1_lista_naming_trial139_rocket.wav,1,a,naming,139,rocket,848,correct,NA,Mar 10 2023 14:20:25,Agnieszka,1
5f5a2,5f5a2_session1_lista_naming_trial140_tomato.wav,1,a,naming,140,tomato,969,correct,NA,Mar 10 2023 14:20:36,Agnieszka,1
5f5a2,5f5a2_session1_lista_naming_trial141_mountain.wav,1,a,naming,141,mountain,1084,correct,NA,Mar 10 2023 14:20:44,Agnieszka,1
5f5a2,5f5a2_session1_lista_naming_trial142_tie.wav,1,a,naming,142,tie,747,correct,NA,Mar 10 2023 14:20:52,Agnieszka,1
5f5a2,5f5a2_session1_lista_naming_trial143_mermaid.wav,1,a,naming,143,mermaid,957,correct,NA,Mar 10 2023 14:21:01,Agnieszka,1
5f5a2,5f5a2_session1_lista_naming_trial144_cork.wav,1,a,naming,144,cork,1266,correct,NA,Mar 10 2023 14:21:09,Agnieszka,1
5f5a2,5f5a2_session1_lista_naming_trial145_beak.wav,1,a,naming,145,beak,868,correct,NA,Mar 10 2023 14:21:17,Agnieszka,1
5f5a2,5f5a2_session1_lista_naming_trial146_book.wav,1,a,naming,146,book,804,correct,NA,Mar 10 2023 14:21:25,Agnieszka,1
5f5a2,5f5a2_session1_lista_naming_trial147_magnet.wav,1,a,naming,147,magnet,979,correct,NA,Mar 10 2023 14:21:33,Agnieszka,1
5f5a2,5f5a2_session1_lista_naming_trial148_castle.wav,1,a,naming,148,castle,877,correct,NA,Mar 10 2023 14:21:40,Agnieszka,1
5f5a2,5f5a2_session1_lista_naming_trial149_orange.wav,1,a,naming,149,orange,1103,correct,NA,Mar 10 2023 14:21:48,Agnieszka,1
5f5a2,5f5a2_session1_lista_naming_trial150_dice.wav,1,a,naming,150,dice,874,correct,NA,Mar 10 2023 14:21:55,Agnieszka,1
