Participant_ID,File_Name,Session,List,Type_Trial,Trial_Nbr,Target,RT,Response_Trial,Comment,Date_Correction,Assessor_Name,Processed
5cd49,5cd49_session1_lista_naming_trial001_wave.wav,1,a,naming,1,wave,1670,correct,NA,Mar  1 2023 15:03:18,Agnieszka,1
5cd49,5cd49_session1_lista_naming_trial002_elbow.wav,1,a,naming,2,elbow,785,correct,NA,Mar  1 2023 15:03:29,Agnieszka,1
5cd49,5cd49_session1_lista_naming_trial003_rabbit.wav,1,a,naming,3,rabbit,715,correct,NA,Mar  1 2023 15:03:38,Agnieszka,1
5cd49,5cd49_session1_lista_naming_trial004_arrow.wav,1,a,naming,4,arrow,826,correct,NA,Mar  1 2023 15:03:48,Agnieszka,1
5cd49,5cd49_session1_lista_naming_trial005_owl.wav,1,a,naming,5,owl,829,correct,NA,Mar  1 2023 15:03:57,Agnieszka,1
5cd49,5cd49_session1_lista_naming_trial006_goat.wav,1,a,naming,6,goat,759,correct,NA,Mar  1 2023 15:04:08,Agnieszka,1
5cd49,5cd49_session1_lista_naming_trial007_kitchen.wav,1,a,naming,7,kitchen,762,correct,NA,Mar  1 2023 15:04:39,Agnieszka,1
5cd49,5cd49_session1_lista_naming_trial008_shield.wav,1,a,naming,8,shield,673,correct,NA,Mar  1 2023 15:06:36,Agnieszka,1
5cd49,5cd49_session1_lista_naming_trial009_wheelbarrow.wav,1,a,naming,9,wheelbarrow,982,correct,NA,Mar  1 2023 15:06:46,Agnieszka,1
5cd49,5cd49_session1_lista_naming_trial010_tongue.wav,1,a,naming,10,tongue,858,correct,NA,Mar  1 2023 15:06:53,Agnieszka,1
5cd49,5cd49_session1_lista_naming_trial011_kiwi.wav,1,a,naming,11,kiwi,766,correct,NA,Mar  1 2023 15:07:02,Agnieszka,1
5cd49,5cd49_session1_lista_naming_trial012_ruler.wav,1,a,naming,12,ruler,645,correct,NA,Mar  1 2023 15:07:14,Agnieszka,1
5cd49,5cd49_session1_lista_naming_trial013_butterfly.wav,1,a,naming,13,butterfly,750,correct,NA,Mar  1 2023 15:07:31,Agnieszka,1
5cd49,5cd49_session1_lista_naming_trial014_judge.wav,1,a,naming,14,judge,1025,correct,NA,Mar  1 2023 15:07:39,Agnieszka,1
5cd49,5cd49_session1_lista_naming_trial015_ear.wav,1,a,naming,15,ear,782,correct,NA,Mar  1 2023 15:07:49,Agnieszka,1
5cd49,5cd49_session1_lista_naming_trial016_swan.wav,1,a,naming,16,swan,670,correct,NA,Mar  1 2023 15:07:59,Agnieszka,1
5cd49,5cd49_session1_lista_naming_trial017_thumb.wav,1,a,naming,17,thumb,820,correct,NA,Mar  1 2023 15:08:26,Agnieszka,1
5cd49,5cd49_session1_lista_naming_trial018_snake.wav,1,a,naming,18,snake,657,correct,NA,Mar  1 2023 15:08:34,Agnieszka,1
5cd49,5cd49_session1_lista_naming_trial019_skirt.wav,1,a,naming,19,skirt,724,correct,NA,Mar  1 2023 15:08:48,Agnieszka,1
5cd49,5cd49_session1_lista_naming_trial020_lawnmower.wav,1,a,naming,20,lawnmower,995,correct,NA,Mar  1 2023 15:08:59,Agnieszka,1
5cd49,5cd49_session1_lista_naming_trial021_coat.wav,1,a,naming,21,coat,1169,correct,NA,Mar  1 2023 15:09:07,Agnieszka,1
5cd49,5cd49_session1_lista_naming_trial022_bone.wav,1,a,naming,22,bone,775,correct,NA,Mar  1 2023 15:09:14,Agnieszka,1
5cd49,5cd49_session1_lista_naming_trial023_rocket.wav,1,a,naming,23,rocket,727,correct,NA,Mar  1 2023 15:09:21,Agnieszka,1
5cd49,5cd49_session1_lista_naming_trial024_train.wav,1,a,naming,24,train,778,correct,NA,Mar  1 2023 15:09:30,Agnieszka,1
5cd49,5cd49_session1_lista_naming_trial025_tattoo.wav,1,a,naming,25,tattoo,1196,correct,NA,Mar  1 2023 15:09:43,Agnieszka,1
5cd49,5cd49_session1_lista_naming_trial026_bike.wav,1,a,naming,26,bike,835,correct,NA,Mar  1 2023 15:09:51,Agnieszka,1
5cd49,5cd49_session1_lista_naming_trial027_comb.wav,1,a,naming,27,comb,1294,correct,NA,Mar  1 2023 15:09:59,Agnieszka,1
5cd49,5cd49_session1_lista_naming_trial028_koala.wav,1,a,naming,28,koala,1363,uncertain,clears throat in the beginning,Mar  1 2023 15:10:14,Agnieszka,1
5cd49,5cd49_session1_lista_naming_trial029_heel.wav,1,a,naming,29,heel,855,correct,NA,Mar  1 2023 15:10:27,Agnieszka,1
5cd49,5cd49_session1_lista_naming_trial030_sausage.wav,1,a,naming,30,sausage,807,correct,NA,Mar  1 2023 15:10:34,Agnieszka,1
5cd49,5cd49_session1_lista_naming_trial031_fridge.wav,1,a,naming,31,fridge,782,correct,NA,Mar  1 2023 15:10:41,Agnieszka,1
5cd49,5cd49_session1_lista_naming_trial032_queen.wav,1,a,naming,32,queen,769,correct,NA,Mar  1 2023 15:10:50,Agnieszka,1
5cd49,5cd49_session1_lista_naming_trial033_knife.wav,1,a,naming,33,knife,751,correct,NA,Mar  1 2023 15:10:57,Agnieszka,1
5cd49,5cd49_session1_lista_naming_trial034_olive.wav,1,a,naming,34,olive,829,correct,NA,Mar  1 2023 15:11:10,Agnieszka,1
5cd49,5cd49_session1_lista_naming_trial035_whale.wav,1,a,naming,35,whale,966,correct,NA,Mar  1 2023 15:11:18,Agnieszka,1
5cd49,5cd49_session1_lista_naming_trial036_book.wav,1,a,naming,36,book,906,correct,NA,Mar  1 2023 15:11:26,Agnieszka,1
5cd49,5cd49_session1_lista_naming_trial037_tunnel.wav,1,a,naming,37,tunnel,864,correct,NA,Mar  1 2023 15:11:36,Agnieszka,1
5cd49,5cd49_session1_lista_naming_trial038_pocket.wav,1,a,naming,38,pocket,925,correct,NA,Mar  1 2023 15:12:13,Agnieszka,1
5cd49,5cd49_session1_lista_naming_trial039_crab.wav,1,a,naming,39,crab,737,correct,NA,Mar  1 2023 15:12:22,Agnieszka,1
5cd49,5cd49_session1_lista_naming_trial040_zip.wav,1,a,naming,40,zip,775,correct,NA,Mar  1 2023 15:12:29,Agnieszka,1
5cd49,5cd49_session1_lista_naming_trial041_pencil.wav,1,a,naming,41,pencil,775,correct,NA,Mar  1 2023 15:12:43,Agnieszka,1
5cd49,5cd49_session1_lista_naming_trial042_suit.wav,1,a,naming,42,suit,817,correct,NA,Mar  1 2023 15:12:52,Agnieszka,1
5cd49,5cd49_session1_lista_naming_trial043_flower.wav,1,a,naming,43,flower,766,correct,NA,Mar  1 2023 15:13:02,Agnieszka,1
5cd49,5cd49_session1_lista_naming_trial044_caterpillar.wav,1,a,naming,44,caterpillar,966,correct,NA,Mar  1 2023 15:13:15,Agnieszka,1
5cd49,5cd49_session1_lista_naming_trial045_sweet.wav,1,a,naming,45,sweet,769,correct,NA,Mar  1 2023 15:13:39,Agnieszka,1
5cd49,5cd49_session1_lista_naming_trial046_puppet.wav,1,a,naming,46,puppet,989,correct,NA,Mar  1 2023 15:13:45,Agnieszka,1
5cd49,5cd49_session1_lista_naming_trial047_bottle.wav,1,a,naming,47,bottle,966,correct,NA,Mar  1 2023 15:14:41,Agnieszka,1
5cd49,5cd49_session1_lista_naming_trial048_submarine.wav,1,a,naming,48,submarine,1148,correct,NA,Mar  1 2023 15:14:48,Agnieszka,1
5cd49,5cd49_session1_lista_naming_trial049_fox.wav,1,a,naming,49,fox,769,correct,NA,Mar  1 2023 15:14:57,Agnieszka,1
5cd49,5cd49_session1_lista_naming_trial050_jellyfish.wav,1,a,naming,50,jellyfish,804,correct,NA,Mar  1 2023 15:15:04,Agnieszka,1
5cd49,5cd49_session1_lista_naming_trial051_net.wav,1,a,naming,51,net,750,correct,NA,Mar  1 2023 15:15:14,Agnieszka,1
5cd49,5cd49_session1_lista_naming_trial052_dress.wav,1,a,naming,52,dress,772,correct,NA,Mar  1 2023 15:15:21,Agnieszka,1
5cd49,5cd49_session1_lista_naming_trial053_windmill.wav,1,a,naming,53,windmill,1113,correct,NA,Mar  1 2023 15:15:28,Agnieszka,1
5cd49,5cd49_session1_lista_naming_trial054_butter.wav,1,a,naming,54,butter,874,correct,NA,Mar  1 2023 15:15:36,Agnieszka,1
5cd49,5cd49_session1_lista_naming_trial055_tomato.wav,1,a,naming,55,tomato,932,correct,NA,Mar  1 2023 15:15:45,Agnieszka,1
5cd49,5cd49_session1_lista_naming_trial056_bell.wav,1,a,naming,56,bell,918,correct,NA,Mar  1 2023 15:15:53,Agnieszka,1
5cd49,5cd49_session1_lista_naming_trial057_suitcase.wav,1,a,naming,57,suitcase,766,correct,NA,Mar  1 2023 15:16:00,Agnieszka,1
5cd49,5cd49_session1_lista_naming_trial058_cork.wav,1,a,naming,58,cork,829,correct,NA,Mar  1 2023 15:16:07,Agnieszka,1
5cd49,5cd49_session1_lista_naming_trial059_carrot.wav,1,a,naming,59,carrot,842,correct,NA,Mar  1 2023 15:16:17,Agnieszka,1
5cd49,5cd49_session1_lista_naming_trial060_tambourine.wav,1,a,naming,60,tambourine,791,correct,NA,Mar  1 2023 15:17:00,Agnieszka,1
5cd49,5cd49_session1_lista_naming_trial061_tap.wav,1,a,naming,61,tap,782,correct,NA,Mar  1 2023 15:17:09,Agnieszka,1
5cd49,5cd49_session1_lista_naming_trial062_shower.wav,1,a,naming,62,shower,807,correct,NA,Mar  1 2023 15:17:21,Agnieszka,1
5cd49,5cd49_session1_lista_naming_trial063_hat.wav,1,a,naming,63,hat,804,correct,NA,Mar  1 2023 15:17:43,Agnieszka,1
5cd49,5cd49_session1_lista_naming_trial064_wing.wav,1,a,naming,64,wing,880,correct,NA,Mar  1 2023 15:17:50,Agnieszka,1
5cd49,5cd49_session1_lista_naming_trial065_helicopter.wav,1,a,naming,65,helicopter,880,correct,NA,Mar  1 2023 15:17:59,Agnieszka,1
5cd49,5cd49_session1_lista_naming_trial066_flipper.wav,1,a,naming,66,flipper,807,correct,NA,Mar  1 2023 15:18:09,Agnieszka,1
5cd49,5cd49_session1_lista_naming_trial067_tray.wav,1,a,naming,67,tray,801,correct,NA,Mar  1 2023 15:18:15,Agnieszka,1
5cd49,5cd49_session1_lista_naming_trial068_peg.wav,1,a,naming,68,peg,842,correct,NA,Mar  1 2023 15:18:22,Agnieszka,1
5cd49,5cd49_session1_lista_naming_trial069_potato.wav,1,a,naming,69,potato,785,correct,NA,Mar  1 2023 15:18:32,Agnieszka,1
5cd49,5cd49_session1_lista_naming_trial070_ghost.wav,1,a,naming,70,ghost,877,correct,NA,Mar  1 2023 15:18:40,Agnieszka,1
5cd49,5cd49_session1_lista_naming_trial071_beak.wav,1,a,naming,71,beak,794,correct,NA,Mar  1 2023 15:18:47,Agnieszka,1
5cd49,5cd49_session1_lista_naming_trial072_wall.wav,1,a,naming,72,wall,766,correct,NA,Mar  1 2023 15:18:54,Agnieszka,1
5cd49,5cd49_session1_lista_naming_trial073_pear.wav,1,a,naming,73,pear,820,correct,NA,Mar  1 2023 15:19:02,Agnieszka,1
5cd49,5cd49_session1_lista_naming_trial074_fireplace.wav,1,a,naming,74,fireplace,804,correct,NA,Mar  1 2023 15:19:11,Agnieszka,1
5cd49,5cd49_session1_lista_naming_trial075_star.wav,1,a,naming,75,star,756,correct,NA,Mar  1 2023 15:19:20,Agnieszka,1
5cd49,5cd49_session1_lista_naming_trial076_saw.wav,1,a,naming,76,saw,699,correct,NA,Mar  1 2023 15:19:27,Agnieszka,1
5cd49,5cd49_session1_lista_naming_trial077_onion.wav,1,a,naming,77,onion,807,correct,NA,Mar  1 2023 15:19:35,Agnieszka,1
5cd49,5cd49_session1_lista_naming_trial078_fork.wav,1,a,naming,78,fork,715,correct,NA,Mar  1 2023 15:19:44,Agnieszka,1
5cd49,5cd49_session1_lista_naming_trial079_lamp.wav,1,a,naming,79,lamp,813,correct,NA,Mar  1 2023 15:19:53,Agnieszka,1
5cd49,5cd49_session1_lista_naming_trial080_bus.wav,1,a,naming,80,bus,928,correct,NA,Mar  1 2023 15:20:03,Agnieszka,1
5cd49,5cd49_session1_lista_naming_trial081_curtain.wav,1,a,naming,81,curtain,839,correct,NA,Mar  1 2023 15:20:30,Agnieszka,1
5cd49,5cd49_session1_lista_naming_trial082_squirrel.wav,1,a,naming,82,squirrel,734,correct,NA,Mar  1 2023 15:20:39,Agnieszka,1
5cd49,5cd49_session1_lista_naming_trial083_fence.wav,1,a,naming,83,fence,868,correct,NA,Mar  1 2023 15:20:47,Agnieszka,1
5cd49,5cd49_session1_lista_naming_trial084_candle.wav,1,a,naming,84,candle,838,correct,NA,Mar  1 2023 15:20:54,Agnieszka,1
5cd49,5cd49_session1_lista_naming_trial085_lung.wav,1,a,naming,85,lung,810,correct,NA,Mar  1 2023 15:21:02,Agnieszka,1
5cd49,5cd49_session1_lista_naming_trial086_pepper.wav,1,a,naming,86,pepper,913,correct,NA,Mar  1 2023 15:21:09,Agnieszka,1
5cd49,5cd49_session1_lista_naming_trial087_tiger.wav,1,a,naming,87,tiger,794,correct,NA,Mar  1 2023 15:21:26,Agnieszka,1
5cd49,5cd49_session1_lista_naming_trial088_scissors.wav,1,a,naming,88,scissors,718,correct,NA,Mar  1 2023 15:21:33,Agnieszka,1
5cd49,5cd49_session1_lista_naming_trial089_bracelet.wav,1,a,naming,89,bracelet,797,correct,NA,Mar  1 2023 15:21:40,Agnieszka,1
5cd49,5cd49_session1_lista_naming_trial090_bear.wav,1,a,naming,90,bear,785,correct,NA,Mar  1 2023 15:21:49,Agnieszka,1
5cd49,5cd49_session1_lista_naming_trial091_island.wav,1,a,naming,91,island,1200,correct,NA,Mar  1 2023 15:22:00,Agnieszka,1
5cd49,5cd49_session1_lista_naming_trial092_tree.wav,1,a,naming,92,tree,855,correct,NA,Mar  1 2023 15:22:08,Agnieszka,1
5cd49,5cd49_session1_lista_naming_trial093_shoe.wav,1,a,naming,93,shoe,782,correct,NA,Mar  1 2023 15:22:22,Agnieszka,1
5cd49,5cd49_session1_lista_naming_trial094_tractor.wav,1,a,naming,94,tractor,807,correct,NA,Mar  1 2023 15:22:31,Agnieszka,1
5cd49,5cd49_session1_lista_naming_trial095_kangaroo.wav,1,a,naming,95,kangaroo,842,correct,NA,Mar  1 2023 15:22:42,Agnieszka,1
5cd49,5cd49_session1_lista_naming_trial096_fairy.wav,1,a,naming,96,fairy,841,correct,NA,Mar  1 2023 15:23:34,Agnieszka,1
5cd49,5cd49_session1_lista_naming_trial097_battery.wav,1,a,naming,97,battery,976,correct,NA,Mar  1 2023 15:23:43,Agnieszka,1
5cd49,5cd49_session1_lista_naming_trial098_hippo.wav,1,a,naming,98,hippo,785,correct,NA,Mar  1 2023 15:23:51,Agnieszka,1
5cd49,5cd49_session1_lista_naming_trial099_soap.wav,1,a,naming,99,soap,804,correct,NA,Mar  1 2023 15:23:59,Agnieszka,1
5cd49,5cd49_session1_lista_naming_trial100_circle.wav,1,a,naming,100,circle,775,correct,NA,Mar  1 2023 15:24:10,Agnieszka,1
5cd49,5cd49_session1_lista_naming_trial101_robot.wav,1,a,naming,101,robot,751,correct,NA,Mar  1 2023 15:24:17,Agnieszka,1
5cd49,5cd49_session1_lista_naming_trial102_apple.wav,1,a,naming,102,apple,801,correct,NA,Mar  1 2023 15:24:27,Agnieszka,1
5cd49,5cd49_session1_lista_naming_trial103_dummy.wav,1,a,naming,103,dummy,779,correct,NA,Mar  1 2023 15:24:35,Agnieszka,1
5cd49,5cd49_session1_lista_naming_trial104_lighter.wav,1,a,naming,104,lighter,941,correct,NA,Mar  1 2023 15:24:43,Agnieszka,1
5cd49,5cd49_session1_lista_naming_trial105_doughnut.wav,1,a,naming,105,doughnut,810,correct,NA,Mar  1 2023 15:24:50,Agnieszka,1
5cd49,5cd49_session1_lista_naming_trial106_donkey.wav,1,a,naming,106,donkey,826,correct,NA,Mar  1 2023 15:24:59,Agnieszka,1
5cd49,5cd49_session1_lista_naming_trial107_magnet.wav,1,a,naming,107,magnet,813,correct,NA,Mar  1 2023 15:25:08,Agnieszka,1
5cd49,5cd49_session1_lista_naming_trial108_glove.wav,1,a,naming,108,glove,791,correct,NA,Mar  1 2023 15:25:19,Agnieszka,1
5cd49,5cd49_session1_lista_naming_trial109_drum.wav,1,a,naming,109,drum,743,correct,NA,Mar  1 2023 15:25:29,Agnieszka,1
5cd49,5cd49_session1_lista_naming_trial110_flag.wav,1,a,naming,110,flag,664,correct,NA,Mar  1 2023 15:25:42,Agnieszka,1
5cd49,5cd49_session1_lista_naming_trial111_orange.wav,1,a,naming,111,orange,836,correct,NA,Mar  1 2023 15:25:51,Agnieszka,1
5cd49,5cd49_session1_lista_naming_trial112_limo.wav,1,a,naming,112,limo,874,correct,NA,Mar  1 2023 15:26:04,Agnieszka,1
5cd49,5cd49_session1_lista_naming_trial113_computer.wav,1,a,naming,113,computer,816,correct,NA,Mar  1 2023 15:26:14,Agnieszka,1
5cd49,5cd49_session1_lista_naming_trial114_mountain.wav,1,a,naming,114,mountain,890,correct,NA,Mar  1 2023 15:26:37,Agnieszka,1
5cd49,5cd49_session1_lista_naming_trial115_plumber.wav,1,a,naming,115,plumber,-1,uncertain,'ooh can't remember this one... plumber!',Mar  1 2023 15:27:10,Agnieszka,1
5cd49,5cd49_session1_lista_naming_trial116_kite.wav,1,a,naming,116,kite,-1,disfluency,NA,Mar  1 2023 15:27:17,Agnieszka,1
5cd49,5cd49_session1_lista_naming_trial117_pineapple.wav,1,a,naming,117,pineapple,1001,correct,NA,Mar  1 2023 15:27:25,Agnieszka,1
5cd49,5cd49_session1_lista_naming_trial118_map.wav,1,a,naming,118,map,872,correct,NA,Mar  1 2023 15:27:32,Agnieszka,1
5cd49,5cd49_session1_lista_naming_trial119_compass.wav,1,a,naming,119,compass,858,correct,NA,Mar  1 2023 15:27:40,Agnieszka,1
5cd49,5cd49_session1_lista_naming_trial120_tie.wav,1,a,naming,120,tie,882,correct,NA,Mar  1 2023 15:27:50,Agnieszka,1
5cd49,5cd49_session1_lista_naming_trial121_arm.wav,1,a,naming,121,arm,813,correct,NA,Mar  1 2023 15:27:59,Agnieszka,1
5cd49,5cd49_session1_lista_naming_trial122_triangle.wav,1,a,naming,122,triangle,868,correct,NA,Mar  1 2023 15:28:06,Agnieszka,1
5cd49,5cd49_session1_lista_naming_trial123_nest.wav,1,a,naming,123,nest,922,correct,NA,Mar  1 2023 15:28:14,Agnieszka,1
5cd49,5cd49_session1_lista_naming_trial124_key.wav,1,a,naming,124,key,817,correct,NA,Mar  1 2023 15:28:36,Agnieszka,1
5cd49,5cd49_session1_lista_naming_trial125_basket.wav,1,a,naming,125,basket,804,correct,NA,Mar  1 2023 15:28:45,Agnieszka,1
5cd49,5cd49_session1_lista_naming_trial126_sun.wav,1,a,naming,126,sun,648,correct,NA,Mar  1 2023 15:28:53,Agnieszka,1
5cd49,5cd49_session1_lista_naming_trial127_zebra.wav,1,a,naming,127,zebra,696,correct,NA,Mar  1 2023 15:29:03,Agnieszka,1
5cd49,5cd49_session1_lista_naming_trial128_dice.wav,1,a,naming,128,dice,845,correct,NA,Mar  1 2023 15:29:12,Agnieszka,1
5cd49,5cd49_session1_lista_naming_trial129_teacher.wav,1,a,naming,129,teacher,925,correct,NA,Mar  1 2023 15:29:21,Agnieszka,1
5cd49,5cd49_session1_lista_naming_trial130_castle.wav,1,a,naming,130,castle,838,correct,NA,Mar  1 2023 15:29:28,Agnieszka,1
5cd49,5cd49_session1_lista_naming_trial131_mouth.wav,1,a,naming,131,mouth,702,correct,NA,Mar  1 2023 15:29:37,Agnieszka,1
5cd49,5cd49_session1_lista_naming_trial132_bull.wav,1,a,naming,132,bull,985,correct,NA,Mar  1 2023 15:29:44,Agnieszka,1
5cd49,5cd49_session1_lista_naming_trial133_medal.wav,1,a,naming,133,medal,807,correct,NA,Mar  1 2023 15:29:54,Agnieszka,1
5cd49,5cd49_session1_lista_naming_trial134_rhino.wav,1,a,naming,134,rhino,737,correct,NA,Mar  1 2023 15:30:07,Agnieszka,1
5cd49,5cd49_session1_lista_naming_trial135_camel.wav,1,a,naming,135,camel,866,correct,NA,Mar  1 2023 15:30:15,Agnieszka,1
5cd49,5cd49_session1_lista_naming_trial136_rose.wav,1,a,naming,136,rose,743,correct,NA,Mar  1 2023 15:30:31,Agnieszka,1
5cd49,5cd49_session1_lista_naming_trial137_clown.wav,1,a,naming,137,clown,835,correct,NA,Mar  1 2023 15:30:39,Agnieszka,1
5cd49,5cd49_session1_lista_naming_trial138_bib.wav,1,a,naming,138,bib,941,correct,NA,Mar  1 2023 15:30:46,Agnieszka,1
5cd49,5cd49_session1_lista_naming_trial139_bullet.wav,1,a,naming,139,bullet,842,correct,NA,Mar  1 2023 15:30:55,Agnieszka,1
5cd49,5cd49_session1_lista_naming_trial140_gym.wav,1,a,naming,140,gym,934,correct,NA,Mar  1 2023 15:31:07,Agnieszka,1
5cd49,5cd49_session1_lista_naming_trial141_drawer.wav,1,a,naming,141,drawer,839,correct,NA,Mar  1 2023 15:31:14,Agnieszka,1
5cd49,5cd49_session1_lista_naming_trial142_mermaid.wav,1,a,naming,142,mermaid,804,correct,NA,Mar  1 2023 15:31:22,Agnieszka,1
5cd49,5cd49_session1_lista_naming_trial143_cherry.wav,1,a,naming,143,cherry,845,correct,NA,Mar  1 2023 15:31:29,Agnieszka,1
5cd49,5cd49_session1_lista_naming_trial144_sword.wav,1,a,naming,144,sword,813,correct,NA,Mar  1 2023 15:31:44,Agnieszka,1
5cd49,5cd49_session1_lista_naming_trial145_lighthouse.wav,1,a,naming,145,lighthouse,839,correct,NA,Mar  1 2023 15:31:58,Agnieszka,1
5cd49,5cd49_session1_lista_naming_trial146_bench.wav,1,a,naming,146,bench,823,correct,NA,Mar  1 2023 15:32:05,Agnieszka,1
5cd49,5cd49_session1_lista_naming_trial147_pipe.wav,1,a,naming,147,pipe,813,correct,NA,Mar  1 2023 15:32:15,Agnieszka,1
5cd49,5cd49_session1_lista_naming_trial148_boxer.wav,1,a,naming,148,boxer,947,correct,NA,Mar  1 2023 15:32:22,Agnieszka,1
5cd49,5cd49_session1_lista_naming_trial149_avocado.wav,1,a,naming,149,avocado,826,correct,NA,Mar  1 2023 15:32:33,Agnieszka,1
5cd49,5cd49_session1_lista_naming_trial150_doctor.wav,1,a,naming,150,doctor,740,correct,NA,Mar  1 2023 15:32:42,Agnieszka,1
