Participant_ID,File_Name,Session,List,Type_Trial,Trial_Nbr,Target,RT,Response_Trial,Comment,Date_Correction,Assessor_Name,Processed
5bc9e,5bc9e_session1_lista_naming_trial001_train.wav,1,a,naming,1,train,1197,correct,NA,Nov 22 2022 16:21:58,Shereen,1
5bc9e,5bc9e_session1_lista_naming_trial002_pear.wav,1,a,naming,2,pear,1357,correct,NA,Nov 22 2022 16:22:05,Shereen,1
5bc9e,5bc9e_session1_lista_naming_trial003_fairy.wav,1,a,naming,3,fairy,2164,correct,NA,Nov 22 2022 16:22:12,Shereen,1
5bc9e,5bc9e_session1_lista_naming_trial004_bracelet.wav,1,a,naming,4,bracelet,1075,correct,NA,Nov 22 2022 16:22:16,Shereen,1
5bc9e,5bc9e_session1_lista_naming_trial005_bear.wav,1,a,naming,5,bear,1522,correct,NA,Nov 22 2022 16:22:25,Shereen,1
5bc9e,5bc9e_session1_lista_naming_trial006_sword.wav,1,a,naming,6,sword,784,correct,NA,Nov 22 2022 16:22:31,Shereen,1
5bc9e,5bc9e_session1_lista_naming_trial007_key.wav,1,a,naming,7,key,954,correct,NA,Nov 22 2022 16:22:35,Shereen,1
5bc9e,5bc9e_session1_lista_naming_trial008_circle.wav,1,a,naming,8,circle,866,correct,NA,Nov 22 2022 16:22:39,Shereen,1
5bc9e,5bc9e_session1_lista_naming_trial009_kite.wav,1,a,naming,9,kite,1012,correct,NA,Nov 22 2022 16:22:44,Shereen,1
5bc9e,5bc9e_session1_lista_naming_trial010_kitchen.wav,1,a,naming,10,kitchen,1129,correct,NA,Nov 22 2022 16:22:48,Shereen,1
5bc9e,5bc9e_session1_lista_naming_trial011_fridge.wav,1,a,naming,11,fridge,1173,correct,NA,Nov 22 2022 16:22:53,Shereen,1
5bc9e,5bc9e_session1_lista_naming_trial012_orange.wav,1,a,naming,12,orange,1066,correct,NA,Nov 22 2022 16:22:59,Shereen,1
5bc9e,5bc9e_session1_lista_naming_trial013_compass.wav,1,a,naming,13,compass,891,correct,NA,Nov 22 2022 16:23:27,Shereen,1
5bc9e,5bc9e_session1_lista_naming_trial014_onion.wav,1,a,naming,14,onion,-1,wrong_word,NA,Nov 22 2022 16:23:35,Shereen,1
5bc9e,5bc9e_session1_lista_naming_trial015_arm.wav,1,a,naming,15,arm,1095,correct,NA,Nov 22 2022 16:23:41,Shereen,1
5bc9e,5bc9e_session1_lista_naming_trial016_triangle.wav,1,a,naming,16,triangle,769,correct,NA,Nov 22 2022 16:23:47,Shereen,1
5bc9e,5bc9e_session1_lista_naming_trial017_suitcase.wav,1,a,naming,17,suitcase,886,correct,NA,Nov 22 2022 16:23:56,Shereen,1
5bc9e,5bc9e_session1_lista_naming_trial018_ear.wav,1,a,naming,18,ear,871,correct,NA,Nov 22 2022 16:24:01,Shereen,1
5bc9e,5bc9e_session1_lista_naming_trial019_map.wav,1,a,naming,19,map,905,correct,NA,Nov 22 2022 16:24:06,Shereen,1
5bc9e,5bc9e_session1_lista_naming_trial020_tap.wav,1,a,naming,20,tap,1129,correct,NA,Nov 22 2022 16:24:10,Shereen,1
5bc9e,5bc9e_session1_lista_naming_trial021_scissors.wav,1,a,naming,21,scissors,-1,no_resp,NA,Nov 22 2022 16:24:15,Shereen,1
5bc9e,5bc9e_session1_lista_naming_trial022_battery.wav,1,a,naming,22,battery,1109,correct,NA,Nov 22 2022 16:24:19,Shereen,1
5bc9e,5bc9e_session1_lista_naming_trial023_donkey.wav,1,a,naming,23,donkey,1620,correct,NA,Nov 22 2022 16:24:30,Shereen,1
5bc9e,5bc9e_session1_lista_naming_trial024_butterfly.wav,1,a,naming,24,butterfly,998,correct,NA,Nov 22 2022 16:24:37,Shereen,1
5bc9e,5bc9e_session1_lista_naming_trial025_star.wav,1,a,naming,25,star,750,correct,NA,Nov 22 2022 16:24:47,Shereen,1
5bc9e,5bc9e_session1_lista_naming_trial026_sun.wav,1,a,naming,26,sun,779,correct,NA,Nov 22 2022 16:24:52,Shereen,1
5bc9e,5bc9e_session1_lista_naming_trial027_tattoo.wav,1,a,naming,27,tattoo,1484,correct,NA,Nov 22 2022 16:24:57,Shereen,1
5bc9e,5bc9e_session1_lista_naming_trial028_owl.wav,1,a,naming,28,owl,1070,correct,NA,Nov 22 2022 16:25:01,Shereen,1
5bc9e,5bc9e_session1_lista_naming_trial029_hat.wav,1,a,naming,29,hat,876,correct,NA,Nov 22 2022 16:25:08,Shereen,1
5bc9e,5bc9e_session1_lista_naming_trial030_flipper.wav,1,a,naming,30,flipper,-1,wrong_word,NA,Nov 22 2022 16:25:14,Shereen,1
5bc9e,5bc9e_session1_lista_naming_trial031_rabbit.wav,1,a,naming,31,rabbit,1046,correct,NA,Nov 22 2022 16:25:20,Shereen,1
5bc9e,5bc9e_session1_lista_naming_trial032_tie.wav,1,a,naming,32,tie,891,correct,NA,Nov 22 2022 16:25:26,Shereen,1
5bc9e,5bc9e_session1_lista_naming_trial033_zebra.wav,1,a,naming,33,zebra,1061,correct,NA,Nov 22 2022 16:25:30,Shereen,1
5bc9e,5bc9e_session1_lista_naming_trial034_wheelbarrow.wav,1,a,naming,34,wheelbarrow,905,correct,NA,Nov 22 2022 16:25:39,Shereen,1
5bc9e,5bc9e_session1_lista_naming_trial035_suit.wav,1,a,naming,35,suit,949,correct,NA,Nov 22 2022 16:25:45,Shereen,1
5bc9e,5bc9e_session1_lista_naming_trial036_shield.wav,1,a,naming,36,shield,-1,no_resp,NA,Nov 22 2022 16:25:49,Shereen,1
5bc9e,5bc9e_session1_lista_naming_trial037_thumb.wav,1,a,naming,37,thumb,1542,correct,NA,Nov 22 2022 16:25:53,Shereen,1
5bc9e,5bc9e_session1_lista_naming_trial038_doctor.wav,1,a,naming,38,doctor,1275,correct,NA,Nov 22 2022 16:26:02,Shereen,1
5bc9e,5bc9e_session1_lista_naming_trial039_crab.wav,1,a,naming,39,crab,920,correct,NA,Nov 22 2022 16:26:16,Shereen,1
5bc9e,5bc9e_session1_lista_naming_trial040_drawer.wav,1,a,naming,40,drawer,832,correct,NA,Nov 22 2022 16:26:25,Shereen,1
5bc9e,5bc9e_session1_lista_naming_trial041_mountain.wav,1,a,naming,41,mountain,973,correct,NA,Nov 22 2022 16:27:09,Shereen,1
5bc9e,5bc9e_session1_lista_naming_trial042_pencil.wav,1,a,naming,42,pencil,978,correct,NA,Nov 22 2022 16:27:16,Shereen,1
5bc9e,5bc9e_session1_lista_naming_trial043_swan.wav,1,a,naming,43,swan,711,correct,NA,Nov 22 2022 16:27:22,Shereen,1
5bc9e,5bc9e_session1_lista_naming_trial044_bottle.wav,1,a,naming,44,bottle,861,correct,NA,Nov 22 2022 16:27:27,Shereen,1
5bc9e,5bc9e_session1_lista_naming_trial045_knife.wav,1,a,naming,45,knife,769,correct,NA,Nov 22 2022 16:27:36,Shereen,1
5bc9e,5bc9e_session1_lista_naming_trial046_curtain.wav,1,a,naming,46,curtain,983,correct,NA,Nov 22 2022 16:27:44,Shereen,1
5bc9e,5bc9e_session1_lista_naming_trial047_kangaroo.wav,1,a,naming,47,kangaroo,1177,correct,NA,Nov 22 2022 16:27:48,Shereen,1
5bc9e,5bc9e_session1_lista_naming_trial048_windmill.wav,1,a,naming,48,windmill,1070,correct,NA,Nov 22 2022 16:27:52,Shereen,1
5bc9e,5bc9e_session1_lista_naming_trial049_rocket.wav,1,a,naming,49,rocket,900,correct,NA,Nov 22 2022 16:27:58,Shereen,1
5bc9e,5bc9e_session1_lista_naming_trial050_bullet.wav,1,a,naming,50,bullet,968,correct,NA,Nov 22 2022 16:28:01,Shereen,1
5bc9e,5bc9e_session1_lista_naming_trial051_dummy.wav,1,a,naming,51,dummy,1041,correct,NA,Nov 22 2022 16:28:06,Shereen,1
5bc9e,5bc9e_session1_lista_naming_trial052_saw.wav,1,a,naming,52,saw,793,correct,NA,Nov 22 2022 16:28:11,Shereen,1
5bc9e,5bc9e_session1_lista_naming_trial053_soap.wav,1,a,naming,53,soap,-1,wrong_word,NA,Nov 22 2022 16:28:22,Shereen,1
5bc9e,5bc9e_session1_lista_naming_trial054_robot.wav,1,a,naming,54,robot,954,correct,NA,Nov 22 2022 16:28:30,Shereen,1
5bc9e,5bc9e_session1_lista_naming_trial055_pipe.wav,1,a,naming,55,pipe,1338,correct,NA,Nov 22 2022 16:28:37,Shereen,1
5bc9e,5bc9e_session1_lista_naming_trial056_medal.wav,1,a,naming,56,medal,955,correct,NA,Nov 22 2022 16:28:42,Shereen,1
5bc9e,5bc9e_session1_lista_naming_trial057_lighter.wav,1,a,naming,57,lighter,808,correct,NA,Nov 22 2022 16:28:51,Shereen,1
5bc9e,5bc9e_session1_lista_naming_trial058_apple.wav,1,a,naming,58,apple,1041,correct,NA,Nov 22 2022 16:28:56,Shereen,1
5bc9e,5bc9e_session1_lista_naming_trial059_basket.wav,1,a,naming,59,basket,847,correct,NA,Nov 22 2022 16:29:02,Shereen,1
5bc9e,5bc9e_session1_lista_naming_trial060_bib.wav,1,a,naming,60,bib,-1,no_resp,NA,Nov 22 2022 16:29:08,Shereen,1
5bc9e,5bc9e_session1_lista_naming_trial061_lighthouse.wav,1,a,naming,61,lighthouse,1022,correct,NA,Nov 22 2022 16:29:13,Shereen,1
5bc9e,5bc9e_session1_lista_naming_trial062_dress.wav,1,a,naming,62,dress,973,correct,NA,Nov 22 2022 16:29:18,Shereen,1
5bc9e,5bc9e_session1_lista_naming_trial063_squirrel.wav,1,a,naming,63,squirrel,886,correct,NA,Nov 22 2022 16:29:26,Shereen,1
5bc9e,5bc9e_session1_lista_naming_trial064_camel.wav,1,a,naming,64,camel,1362,correct,NA,Nov 22 2022 16:29:41,Shereen,1
5bc9e,5bc9e_session1_lista_naming_trial065_glove.wav,1,a,naming,65,glove,764,correct,NA,Nov 22 2022 16:29:54,Shereen,1
5bc9e,5bc9e_session1_lista_naming_trial066_wing.wav,1,a,naming,66,wing,-1,wrong_word,NA,Nov 22 2022 16:30:03,Shereen,1
5bc9e,5bc9e_session1_lista_naming_trial067_jellyfish.wav,1,a,naming,67,jellyfish,931,correct,NA,Nov 22 2022 16:30:07,Shereen,1
5bc9e,5bc9e_session1_lista_naming_trial068_bell.wav,1,a,naming,68,bell,1124,correct,NA,Nov 22 2022 16:30:19,Shereen,1
5bc9e,5bc9e_session1_lista_naming_trial069_heel.wav,1,a,naming,69,heel,1109,correct,NA,Nov 22 2022 16:30:25,Shereen,1
5bc9e,5bc9e_session1_lista_naming_trial070_submarine.wav,1,a,naming,70,submarine,-1,no_resp,NA,Nov 22 2022 16:30:29,Shereen,1
5bc9e,5bc9e_session1_lista_naming_trial071_puppet.wav,1,a,naming,71,puppet,-1,no_resp,NA,Nov 22 2022 16:30:35,Shereen,1
5bc9e,5bc9e_session1_lista_naming_trial072_bull.wav,1,a,naming,72,bull,1250,correct,NA,Nov 22 2022 16:30:40,Shereen,1
5bc9e,5bc9e_session1_lista_naming_trial073_teacher.wav,1,a,naming,73,teacher,1085,correct,NA,Nov 22 2022 16:30:57,Shereen,1
5bc9e,5bc9e_session1_lista_naming_trial074_clown.wav,1,a,naming,74,clown,-1,wrong_word,NA,Nov 22 2022 16:31:04,Shereen,1
5bc9e,5bc9e_session1_lista_naming_trial075_fireplace.wav,1,a,naming,75,fireplace,983,correct,NA,Nov 22 2022 16:31:09,Shereen,1
5bc9e,5bc9e_session1_lista_naming_trial076_rhino.wav,1,a,naming,76,rhino,934,correct,NA,Nov 22 2022 16:31:16,Shereen,1
5bc9e,5bc9e_session1_lista_naming_trial077_limo.wav,1,a,naming,77,limo,866,correct,NA,Nov 22 2022 16:31:22,Shereen,1
5bc9e,5bc9e_session1_lista_naming_trial078_mermaid.wav,1,a,naming,78,mermaid,1036,correct,NA,Nov 22 2022 16:31:30,Shereen,1
5bc9e,5bc9e_session1_lista_naming_trial079_gym.wav,1,a,naming,79,gym,934,correct,NA,Nov 22 2022 16:31:35,Shereen,1
5bc9e,5bc9e_session1_lista_naming_trial080_tree.wav,1,a,naming,80,tree,730,correct,NA,Nov 22 2022 16:31:39,Shereen,1
5bc9e,5bc9e_session1_lista_naming_trial081_butter.wav,1,a,naming,81,butter,1381,correct,NA,Nov 22 2022 16:31:45,Shereen,1
5bc9e,5bc9e_session1_lista_naming_trial082_nest.wav,1,a,naming,82,nest,1168,correct,NA,Nov 22 2022 16:31:49,Shereen,1
5bc9e,5bc9e_session1_lista_naming_trial083_peg.wav,1,a,naming,83,peg,1226,correct,NA,Nov 22 2022 16:32:06,Shereen,1
5bc9e,5bc9e_session1_lista_naming_trial084_carrot.wav,1,a,naming,84,carrot,1041,correct,NA,Nov 22 2022 16:32:12,Shereen,1
5bc9e,5bc9e_session1_lista_naming_trial085_pocket.wav,1,a,naming,85,pocket,1620,correct,NA,Nov 22 2022 16:32:17,Shereen,1
5bc9e,5bc9e_session1_lista_naming_trial086_flower.wav,1,a,naming,86,flower,1080,correct,NA,Nov 22 2022 16:32:22,Shereen,1
5bc9e,5bc9e_session1_lista_naming_trial087_fork.wav,1,a,naming,87,fork,740,correct,NA,Nov 22 2022 16:32:40,Shereen,1
5bc9e,5bc9e_session1_lista_naming_trial088_hippo.wav,1,a,naming,88,hippo,-1,wrong_word,NA,Nov 22 2022 16:32:57,Shereen,1
5bc9e,5bc9e_session1_lista_naming_trial089_tongue.wav,1,a,naming,89,tongue,944,correct,NA,Nov 22 2022 16:33:04,Shereen,1
5bc9e,5bc9e_session1_lista_naming_trial090_bike.wav,1,a,naming,90,bike,-1,wrong_word,NA,Nov 22 2022 16:34:17,Shereen,1
5bc9e,5bc9e_session1_lista_naming_trial091_tractor.wav,1,a,naming,91,tractor,988,correct,NA,Nov 22 2022 16:34:24,Shereen,1
5bc9e,5bc9e_session1_lista_naming_trial092_cork.wav,1,a,naming,92,cork,1090,correct,NA,Nov 22 2022 16:34:30,Shereen,1
5bc9e,5bc9e_session1_lista_naming_trial093_ghost.wav,1,a,naming,93,ghost,832,correct,NA,Nov 22 2022 16:34:35,Shereen,1
5bc9e,5bc9e_session1_lista_naming_trial094_bench.wav,1,a,naming,94,bench,793,correct,NA,Nov 22 2022 17:00:41,Shereen,1
5bc9e,5bc9e_session1_lista_naming_trial095_flag.wav,1,a,naming,95,flag,789,correct,NA,Nov 22 2022 17:00:47,Shereen,1
5bc9e,5bc9e_session1_lista_naming_trial096_tiger.wav,1,a,naming,96,tiger,798,correct,NA,Nov 22 2022 17:00:54,Shereen,1
5bc9e,5bc9e_session1_lista_naming_trial097_whale.wav,1,a,naming,97,whale,-1,wrong_word,NA,Nov 22 2022 17:01:00,Shereen,1
5bc9e,5bc9e_session1_lista_naming_trial098_caterpillar.wav,1,a,naming,98,caterpillar,1187,correct,NA,Nov 22 2022 17:02:05,Shereen,1
5bc9e,5bc9e_session1_lista_naming_trial099_castle.wav,1,a,naming,99,castle,993,correct,NA,Nov 22 2022 17:02:09,Shereen,1
5bc9e,5bc9e_session1_lista_naming_trial100_bone.wav,1,a,naming,100,bone,998,correct,NA,Nov 22 2022 17:02:15,Shereen,1
5bc9e,5bc9e_session1_lista_naming_trial101_magnet.wav,1,a,naming,101,magnet,910,correct,NA,Nov 22 2022 17:02:20,Shereen,1
5bc9e,5bc9e_session1_lista_naming_trial102_drum.wav,1,a,naming,102,drum,842,correct,NA,Nov 22 2022 17:02:24,Shereen,1
5bc9e,5bc9e_session1_lista_naming_trial103_shower.wav,1,a,naming,103,shower,837,correct,NA,Nov 22 2022 17:02:30,Shereen,1
5bc9e,5bc9e_session1_lista_naming_trial104_wave.wav,1,a,naming,104,wave,-1,disfluency,NA,Nov 22 2022 17:02:41,Shereen,1
5bc9e,5bc9e_session1_lista_naming_trial105_olive.wav,1,a,naming,105,olive,1343,correct,NA,Nov 22 2022 17:02:46,Shereen,1
5bc9e,5bc9e_session1_lista_naming_trial106_bus.wav,1,a,naming,106,bus,905,correct,NA,Nov 22 2022 17:02:55,Shereen,1
5bc9e,5bc9e_session1_lista_naming_trial107_pepper.wav,1,a,naming,107,pepper,-1,no_resp,NA,Nov 22 2022 17:03:00,Shereen,1
5bc9e,5bc9e_session1_lista_naming_trial108_tambourine.wav,1,a,naming,108,tambourine,1542,correct,NA,Nov 22 2022 17:03:06,Shereen,1
5bc9e,5bc9e_session1_lista_naming_trial109_sweet.wav,1,a,naming,109,sweet,939,correct,NA,Nov 22 2022 17:03:10,Shereen,1
5bc9e,5bc9e_session1_lista_naming_trial110_goat.wav,1,a,naming,110,goat,1347,correct,NA,Nov 22 2022 17:03:13,Shereen,1
5bc9e,5bc9e_session1_lista_naming_trial111_helicopter.wav,1,a,naming,111,helicopter,1090,correct,NA,Nov 22 2022 17:03:17,Shereen,1
5bc9e,5bc9e_session1_lista_naming_trial112_doughnut.wav,1,a,naming,112,doughnut,871,correct,NA,Nov 22 2022 17:03:31,Shereen,1
5bc9e,5bc9e_session1_lista_naming_trial113_zip.wav,1,a,naming,113,zip,789,correct,NA,Nov 22 2022 17:03:35,Shereen,1
5bc9e,5bc9e_session1_lista_naming_trial114_tunnel.wav,1,a,naming,114,tunnel,-1,wrong_word,NA,Nov 22 2022 17:03:44,Shereen,1
5bc9e,5bc9e_session1_lista_naming_trial115_cherry.wav,1,a,naming,115,cherry,1114,correct,NA,Nov 22 2022 17:03:49,Shereen,1
5bc9e,5bc9e_session1_lista_naming_trial116_plumber.wav,1,a,naming,116,plumber,968,correct,NA,Nov 22 2022 17:03:54,Shereen,1
5bc9e,5bc9e_session1_lista_naming_trial117_island.wav,1,a,naming,117,island,988,correct,NA,Nov 22 2022 17:03:57,Shereen,1
5bc9e,5bc9e_session1_lista_naming_trial118_pineapple.wav,1,a,naming,118,pineapple,968,correct,NA,Nov 22 2022 17:04:01,Shereen,1
5bc9e,5bc9e_session1_lista_naming_trial119_net.wav,1,a,naming,119,net,1328,correct,NA,Nov 22 2022 17:04:08,Shereen,1
5bc9e,5bc9e_session1_lista_naming_trial120_dice.wav,1,a,naming,120,dice,993,correct,NA,Nov 22 2022 17:04:13,Shereen,1
5bc9e,5bc9e_session1_lista_naming_trial121_kiwi.wav,1,a,naming,121,kiwi,-1,no_resp,NA,Nov 22 2022 17:04:17,Shereen,1
5bc9e,5bc9e_session1_lista_naming_trial122_lawnmower.wav,1,a,naming,122,lawnmower,-1,wrong_word,NA,Nov 22 2022 17:04:23,Shereen,1
5bc9e,5bc9e_session1_lista_naming_trial123_potato.wav,1,a,naming,123,potato,1406,correct,NA,Nov 22 2022 17:04:27,Shereen,1
5bc9e,5bc9e_session1_lista_naming_trial124_snake.wav,1,a,naming,124,snake,1347,correct,NA,Nov 22 2022 17:04:32,Shereen,1
5bc9e,5bc9e_session1_lista_naming_trial125_book.wav,1,a,naming,125,book,1104,correct,NA,Nov 22 2022 17:04:35,Shereen,1
5bc9e,5bc9e_session1_lista_naming_trial126_fence.wav,1,a,naming,126,fence,925,correct,NA,Nov 22 2022 17:04:43,Shereen,1
5bc9e,5bc9e_session1_lista_naming_trial127_tray.wav,1,a,naming,127,tray,925,correct,NA,Nov 22 2022 17:04:51,Shereen,1
5bc9e,5bc9e_session1_lista_naming_trial128_mouth.wav,1,a,naming,128,mouth,-1,wrong_word,NA,Nov 22 2022 17:04:59,Shereen,1
5bc9e,5bc9e_session1_lista_naming_trial129_shoe.wav,1,a,naming,129,shoe,900,correct,NA,Nov 22 2022 17:05:03,Shereen,1
5bc9e,5bc9e_session1_lista_naming_trial130_lung.wav,1,a,naming,130,lung,-1,wrong_word,NA,Nov 22 2022 17:05:10,Shereen,1
5bc9e,5bc9e_session1_lista_naming_trial131_avocado.wav,1,a,naming,131,avocado,1357,correct,NA,Nov 22 2022 17:05:13,Shereen,1
5bc9e,5bc9e_session1_lista_naming_trial132_boxer.wav,1,a,naming,132,boxer,1066,correct,NA,Nov 22 2022 17:05:17,Shereen,1
5bc9e,5bc9e_session1_lista_naming_trial133_wall.wav,1,a,naming,133,wall,1080,correct,NA,Nov 22 2022 17:05:36,Shereen,1
5bc9e,5bc9e_session1_lista_naming_trial134_beak.wav,1,a,naming,134,beak,1202,correct,NA,Nov 22 2022 17:05:41,Shereen,1
5bc9e,5bc9e_session1_lista_naming_trial135_fox.wav,1,a,naming,135,fox,1479,correct,NA,Nov 22 2022 17:05:45,Shereen,1
5bc9e,5bc9e_session1_lista_naming_trial136_computer.wav,1,a,naming,136,computer,993,correct,NA,Nov 22 2022 17:05:58,Shereen,1
5bc9e,5bc9e_session1_lista_naming_trial137_lamp.wav,1,a,naming,137,lamp,886,correct,NA,Nov 22 2022 17:06:05,Shereen,1
5bc9e,5bc9e_session1_lista_naming_trial138_comb.wav,1,a,naming,138,comb,1017,correct,NA,Nov 22 2022 17:06:17,Shereen,1
5bc9e,5bc9e_session1_lista_naming_trial139_rose.wav,1,a,naming,139,rose,774,correct,NA,Nov 22 2022 17:06:21,Shereen,1
5bc9e,5bc9e_session1_lista_naming_trial140_judge.wav,1,a,naming,140,judge,837,correct,NA,Nov 22 2022 17:06:27,Shereen,1
5bc9e,5bc9e_session1_lista_naming_trial141_tomato.wav,1,a,naming,141,tomato,949,correct,NA,Nov 22 2022 17:06:31,Shereen,1
5bc9e,5bc9e_session1_lista_naming_trial142_candle.wav,1,a,naming,142,candle,1343,correct,NA,Nov 22 2022 17:06:36,Shereen,1
5bc9e,5bc9e_session1_lista_naming_trial143_skirt.wav,1,a,naming,143,skirt,1561,correct,NA,Nov 22 2022 17:06:40,Shereen,1
5bc9e,5bc9e_session1_lista_naming_trial144_ruler.wav,1,a,naming,144,ruler,964,correct,NA,Nov 22 2022 17:06:43,Shereen,1
5bc9e,5bc9e_session1_lista_naming_trial145_elbow.wav,1,a,naming,145,elbow,1605,correct,NA,Nov 22 2022 17:06:47,Shereen,1
5bc9e,5bc9e_session1_lista_naming_trial146_arrow.wav,1,a,naming,146,arrow,1678,correct,NA,Nov 22 2022 17:06:51,Shereen,1
5bc9e,5bc9e_session1_lista_naming_trial147_queen.wav,1,a,naming,147,queen,1007,correct,NA,Nov 22 2022 17:06:55,Shereen,1
5bc9e,5bc9e_session1_lista_naming_trial148_coat.wav,1,a,naming,148,coat,1309,correct,NA,Nov 22 2022 17:06:58,Shereen,1
5bc9e,5bc9e_session1_lista_naming_trial149_sausage.wav,1,a,naming,149,sausage,866,correct,NA,Nov 22 2022 17:07:04,Shereen,1
5bc9e,5bc9e_session1_lista_naming_trial150_koala.wav,1,a,naming,150,koala,983,correct,NA,Nov 22 2022 17:07:07,Shereen,1
