Participant_ID,File_Name,Session,List,Type_Trial,Trial_Nbr,Target,RT,Response_Trial,Comment,Date_Correction,Assessor_Name,Processed
61fa9,61fa9_session1_lista_naming_trial001_lawnmower.wav,1,a,naming,1,lawnmower,992,correct,NA,Mar  6 2023 05:19:41,Agnieszka,1
61fa9,61fa9_session1_lista_naming_trial002_rhino.wav,1,a,naming,2,rhino,782,correct,NA,Mar  6 2023 05:19:48,Agnieszka,1
61fa9,61fa9_session1_lista_naming_trial003_ruler.wav,1,a,naming,3,ruler,804,correct,NA,Mar  6 2023 05:19:59,Agnieszka,1
61fa9,61fa9_session1_lista_naming_trial004_drum.wav,1,a,naming,4,drum,-1,wrong_word,NA,Mar  6 2023 05:20:06,Agnieszka,1
61fa9,61fa9_session1_lista_naming_trial005_curtain.wav,1,a,naming,5,curtain,992,correct,NA,Mar  6 2023 05:20:17,Agnieszka,1
61fa9,61fa9_session1_lista_naming_trial006_tree.wav,1,a,naming,6,tree,778,correct,NA,Mar  6 2023 05:20:28,Agnieszka,1
61fa9,61fa9_session1_lista_naming_trial007_sausage.wav,1,a,naming,7,sausage,753,correct,NA,Mar  6 2023 05:20:36,Agnieszka,1
61fa9,61fa9_session1_lista_naming_trial008_puppet.wav,1,a,naming,8,puppet,947,correct,NA,Mar  6 2023 05:20:44,Agnieszka,1
61fa9,61fa9_session1_lista_naming_trial009_sweet.wav,1,a,naming,9,sweet,762,correct,NA,Mar  6 2023 05:20:52,Agnieszka,1
61fa9,61fa9_session1_lista_naming_trial010_limo.wav,1,a,naming,10,limo,922,correct,NA,Mar  6 2023 05:21:00,Agnieszka,1
61fa9,61fa9_session1_lista_naming_trial011_fork.wav,1,a,naming,11,fork,817,correct,NA,Mar  6 2023 05:21:20,Agnieszka,1
61fa9,61fa9_session1_lista_naming_trial012_net.wav,1,a,naming,12,net,839,correct,NA,Mar  6 2023 05:21:37,Agnieszka,1
61fa9,61fa9_session1_lista_naming_trial013_battery.wav,1,a,naming,13,battery,861,correct,NA,Mar  6 2023 05:21:49,Agnieszka,1
61fa9,61fa9_session1_lista_naming_trial014_pineapple.wav,1,a,naming,14,pineapple,756,correct,NA,Mar  6 2023 05:21:58,Agnieszka,1
61fa9,61fa9_session1_lista_naming_trial015_wing.wav,1,a,naming,15,wing,778,correct,NA,Mar  6 2023 05:22:08,Agnieszka,1
61fa9,61fa9_session1_lista_naming_trial016_pocket.wav,1,a,naming,16,pocket,979,correct,NA,Mar  6 2023 05:24:14,Agnieszka,1
61fa9,61fa9_session1_lista_naming_trial017_zip.wav,1,a,naming,17,zip,820,correct,NA,Mar  6 2023 05:24:23,Agnieszka,1
61fa9,61fa9_session1_lista_naming_trial018_fence.wav,1,a,naming,18,fence,782,correct,NA,Mar  6 2023 05:24:32,Agnieszka,1
61fa9,61fa9_session1_lista_naming_trial019_kiwi.wav,1,a,naming,19,kiwi,696,correct,NA,Mar  6 2023 05:24:40,Agnieszka,1
61fa9,61fa9_session1_lista_naming_trial020_kite.wav,1,a,naming,20,kite,1062,correct,NA,Mar  6 2023 05:24:58,Agnieszka,1
61fa9,61fa9_session1_lista_naming_trial021_fox.wav,1,a,naming,21,fox,832,correct,NA,Mar  6 2023 05:25:06,Agnieszka,1
61fa9,61fa9_session1_lista_naming_trial022_tambourine.wav,1,a,naming,22,tambourine,1062,correct,NA,Mar  6 2023 05:25:14,Agnieszka,1
61fa9,61fa9_session1_lista_naming_trial023_pipe.wav,1,a,naming,23,pipe,1100,correct,NA,Mar  6 2023 05:25:21,Agnieszka,1
61fa9,61fa9_session1_lista_naming_trial024_hat.wav,1,a,naming,24,hat,801,correct,NA,Mar  6 2023 05:25:29,Agnieszka,1
61fa9,61fa9_session1_lista_naming_trial025_tray.wav,1,a,naming,25,tray,995,correct,NA,Mar  6 2023 05:26:17,Agnieszka,1
61fa9,61fa9_session1_lista_naming_trial026_drawer.wav,1,a,naming,26,drawer,1084,correct,NA,Mar  6 2023 05:26:25,Agnieszka,1
61fa9,61fa9_session1_lista_naming_trial027_sword.wav,1,a,naming,27,sword,864,correct,NA,Mar  6 2023 05:26:40,Agnieszka,1
61fa9,61fa9_session1_lista_naming_trial028_mermaid.wav,1,a,naming,28,mermaid,804,correct,NA,Mar  6 2023 05:26:53,Agnieszka,1
61fa9,61fa9_session1_lista_naming_trial029_shoe.wav,1,a,naming,29,shoe,753,correct,NA,Mar  6 2023 05:27:03,Agnieszka,1
61fa9,61fa9_session1_lista_naming_trial030_swan.wav,1,a,naming,30,swan,762,correct,NA,Mar  6 2023 05:27:18,Agnieszka,1
61fa9,61fa9_session1_lista_naming_trial031_cherry.wav,1,a,naming,31,cherry,1221,correct,NA,Mar  6 2023 05:27:26,Agnieszka,1
61fa9,61fa9_session1_lista_naming_trial032_skirt.wav,1,a,naming,32,skirt,721,correct,NA,Mar  6 2023 05:27:34,Agnieszka,1
61fa9,61fa9_session1_lista_naming_trial033_boxer.wav,1,a,naming,33,boxer,1215,correct,NA,Mar  6 2023 05:27:42,Agnieszka,1
61fa9,61fa9_session1_lista_naming_trial034_medal.wav,1,a,naming,34,medal,705,correct,NA,Mar  6 2023 05:27:51,Agnieszka,1
61fa9,61fa9_session1_lista_naming_trial035_jellyfish.wav,1,a,naming,35,jellyfish,772,correct,NA,Mar  6 2023 05:28:09,Agnieszka,1
61fa9,61fa9_session1_lista_naming_trial036_coat.wav,1,a,naming,36,coat,1030,correct,NA,Mar  6 2023 05:28:19,Agnieszka,1
61fa9,61fa9_session1_lista_naming_trial037_map.wav,1,a,naming,37,map,925,correct,NA,Mar  6 2023 05:28:33,Agnieszka,1
61fa9,61fa9_session1_lista_naming_trial038_bike.wav,1,a,naming,38,bike,826,correct,NA,Mar  6 2023 05:28:40,Agnieszka,1
61fa9,61fa9_session1_lista_naming_trial039_nest.wav,1,a,naming,39,nest,826,correct,NA,Mar  6 2023 05:28:49,Agnieszka,1
61fa9,61fa9_session1_lista_naming_trial040_gym.wav,1,a,naming,40,gym,989,correct,NA,Mar  6 2023 05:28:59,Agnieszka,1
61fa9,61fa9_session1_lista_naming_trial041_apple.wav,1,a,naming,41,apple,829,correct,NA,Mar  6 2023 05:29:06,Agnieszka,1
61fa9,61fa9_session1_lista_naming_trial042_mountain.wav,1,a,naming,42,mountain,826,correct,NA,Mar  6 2023 05:29:14,Agnieszka,1
61fa9,61fa9_session1_lista_naming_trial043_tap.wav,1,a,naming,43,tap,810,correct,NA,Mar  6 2023 05:29:23,Agnieszka,1
61fa9,61fa9_session1_lista_naming_trial044_dice.wav,1,a,naming,44,dice,928,correct,NA,Mar  6 2023 05:29:40,Agnieszka,1
61fa9,61fa9_session1_lista_naming_trial045_dress.wav,1,a,naming,45,dress,775,correct,NA,Mar  6 2023 05:29:55,Agnieszka,1
61fa9,61fa9_session1_lista_naming_trial046_hippo.wav,1,a,naming,46,hippo,711,correct,NA,Mar  6 2023 05:30:37,Agnieszka,1
61fa9,61fa9_session1_lista_naming_trial047_windmill.wav,1,a,naming,47,windmill,1145,correct,NA,Mar  6 2023 05:30:52,Agnieszka,1
61fa9,61fa9_session1_lista_naming_trial048_heel.wav,1,a,naming,48,heel,893,correct,NA,Mar  6 2023 05:31:00,Agnieszka,1
61fa9,61fa9_session1_lista_naming_trial049_carrot.wav,1,a,naming,49,carrot,750,correct,NA,Mar  6 2023 05:31:08,Agnieszka,1
61fa9,61fa9_session1_lista_naming_trial050_arm.wav,1,a,naming,50,arm,976,correct,NA,Mar  6 2023 05:31:22,Agnieszka,1
61fa9,61fa9_session1_lista_naming_trial051_judge.wav,1,a,naming,51,judge,890,correct,NA,Mar  6 2023 05:31:38,Agnieszka,1
61fa9,61fa9_session1_lista_naming_trial052_zebra.wav,1,a,naming,52,zebra,721,correct,NA,Mar  6 2023 05:32:14,Agnieszka,1
61fa9,61fa9_session1_lista_naming_trial053_butter.wav,1,a,naming,53,butter,807,correct,NA,Mar  6 2023 05:32:23,Agnieszka,1
61fa9,61fa9_session1_lista_naming_trial054_island.wav,1,a,naming,54,island,852,correct,NA,Mar  6 2023 05:32:32,Agnieszka,1
61fa9,61fa9_session1_lista_naming_trial055_suitcase.wav,1,a,naming,55,suitcase,998,correct,NA,Mar  6 2023 05:32:45,Agnieszka,1
61fa9,61fa9_session1_lista_naming_trial056_fridge.wav,1,a,naming,56,fridge,788,correct,NA,Mar  6 2023 05:32:56,Agnieszka,1
61fa9,61fa9_session1_lista_naming_trial057_bottle.wav,1,a,naming,57,bottle,890,correct,NA,Mar  6 2023 05:33:06,Agnieszka,1
61fa9,61fa9_session1_lista_naming_trial058_tiger.wav,1,a,naming,58,tiger,813,correct,NA,Mar  6 2023 05:33:34,Agnieszka,1
61fa9,61fa9_session1_lista_naming_trial059_bear.wav,1,a,naming,59,bear,667,correct,NA,Mar  6 2023 05:34:03,Agnieszka,1
61fa9,61fa9_session1_lista_naming_trial060_snake.wav,1,a,naming,60,snake,737,correct,NA,Mar  6 2023 05:34:12,Agnieszka,1
61fa9,61fa9_session1_lista_naming_trial061_lighthouse.wav,1,a,naming,61,lighthouse,976,correct,NA,Mar  6 2023 05:34:27,Agnieszka,1
61fa9,61fa9_session1_lista_naming_trial062_koala.wav,1,a,naming,62,koala,915,correct,NA,Mar  6 2023 05:34:41,Agnieszka,1
61fa9,61fa9_session1_lista_naming_trial063_bull.wav,1,a,naming,63,bull,804,correct,NA,Mar  6 2023 05:34:49,Agnieszka,1
61fa9,61fa9_session1_lista_naming_trial064_wave.wav,1,a,naming,64,wave,954,correct,NA,Mar  6 2023 05:35:03,Agnieszka,1
61fa9,61fa9_session1_lista_naming_trial065_tractor.wav,1,a,naming,65,tractor,906,correct,NA,Mar  6 2023 05:35:10,Agnieszka,1
61fa9,61fa9_session1_lista_naming_trial066_bib.wav,1,a,naming,66,bib,842,correct,NA,Mar  6 2023 05:35:24,Agnieszka,1
61fa9,61fa9_session1_lista_naming_trial067_knife.wav,1,a,naming,67,knife,731,correct,NA,Mar  6 2023 05:35:32,Agnieszka,1
61fa9,61fa9_session1_lista_naming_trial068_thumb.wav,1,a,naming,68,thumb,702,correct,NA,Mar  6 2023 05:35:45,Agnieszka,1
61fa9,61fa9_session1_lista_naming_trial069_bullet.wav,1,a,naming,69,bullet,743,correct,NA,Mar  6 2023 05:35:54,Agnieszka,1
61fa9,61fa9_session1_lista_naming_trial070_wall.wav,1,a,naming,70,wall,-1,disfluency,NA,Mar  6 2023 05:36:04,Agnieszka,1
61fa9,61fa9_session1_lista_naming_trial071_tomato.wav,1,a,naming,71,tomato,791,correct,NA,Mar  6 2023 05:36:18,Agnieszka,1
61fa9,61fa9_session1_lista_naming_trial072_submarine.wav,1,a,naming,72,submarine,1250,correct,NA,Mar  6 2023 05:36:32,Agnieszka,1
61fa9,61fa9_session1_lista_naming_trial073_computer.wav,1,a,naming,73,computer,1094,correct,NA,Mar  6 2023 05:36:45,Agnieszka,1
61fa9,61fa9_session1_lista_naming_trial074_fairy.wav,1,a,naming,74,fairy,791,correct,NA,Mar  6 2023 05:36:53,Agnieszka,1
61fa9,61fa9_session1_lista_naming_trial075_arrow.wav,1,a,naming,75,arrow,1004,correct,NA,Mar  6 2023 05:37:01,Agnieszka,1
61fa9,61fa9_session1_lista_naming_trial076_lung.wav,1,a,naming,76,lung,756,correct,NA,Mar  6 2023 05:37:17,Agnieszka,1
61fa9,61fa9_session1_lista_naming_trial077_avocado.wav,1,a,naming,77,avocado,788,correct,NA,Mar  6 2023 05:37:29,Agnieszka,1
61fa9,61fa9_session1_lista_naming_trial078_lighter.wav,1,a,naming,78,lighter,928,correct,NA,Mar  6 2023 05:37:50,Agnieszka,1
61fa9,61fa9_session1_lista_naming_trial079_queen.wav,1,a,naming,79,queen,1011,correct,NA,Mar  6 2023 05:38:03,Agnieszka,1
61fa9,61fa9_session1_lista_naming_trial080_whale.wav,1,a,naming,80,whale,804,correct,NA,Mar  6 2023 05:38:11,Agnieszka,1
61fa9,61fa9_session1_lista_naming_trial081_olive.wav,1,a,naming,81,olive,918,correct,NA,Mar  6 2023 05:38:27,Agnieszka,1
61fa9,61fa9_session1_lista_naming_trial082_tunnel.wav,1,a,naming,82,tunnel,995,correct,NA,Mar  6 2023 05:38:36,Agnieszka,1
61fa9,61fa9_session1_lista_naming_trial083_beak.wav,1,a,naming,83,beak,813,correct,NA,Mar  6 2023 05:38:49,Agnieszka,1
61fa9,61fa9_session1_lista_naming_trial084_teacher.wav,1,a,naming,84,teacher,899,correct,NA,Mar  6 2023 05:38:59,Agnieszka,1
61fa9,61fa9_session1_lista_naming_trial085_owl.wav,1,a,naming,85,owl,762,correct,NA,Mar  6 2023 05:39:08,Agnieszka,1
61fa9,61fa9_session1_lista_naming_trial086_castle.wav,1,a,naming,86,castle,813,correct,NA,Mar  6 2023 05:39:26,Agnieszka,1
61fa9,61fa9_session1_lista_naming_trial087_elbow.wav,1,a,naming,87,elbow,1103,correct,NA,Mar  6 2023 05:39:36,Agnieszka,1
61fa9,61fa9_session1_lista_naming_trial088_robot.wav,1,a,naming,88,robot,874,correct,NA,Mar  6 2023 05:39:44,Agnieszka,1
61fa9,61fa9_session1_lista_naming_trial089_flower.wav,1,a,naming,89,flower,797,correct,NA,Mar  6 2023 05:39:54,Agnieszka,1
61fa9,61fa9_session1_lista_naming_trial090_soap.wav,1,a,naming,90,soap,839,correct,NA,Mar  6 2023 05:40:06,Agnieszka,1
61fa9,61fa9_session1_lista_naming_trial091_helicopter.wav,1,a,naming,91,helicopter,992,correct,NA,Mar  6 2023 05:40:23,Agnieszka,1
61fa9,61fa9_session1_lista_naming_trial092_flag.wav,1,a,naming,92,flag,871,correct,NA,Mar  6 2023 05:40:35,Agnieszka,1
61fa9,61fa9_session1_lista_naming_trial093_tattoo.wav,1,a,naming,93,tattoo,1011,correct,NA,Mar  6 2023 05:40:49,Agnieszka,1
61fa9,61fa9_session1_lista_naming_trial094_tongue.wav,1,a,naming,94,tongue,1033,correct,NA,Mar  6 2023 05:40:59,Agnieszka,1
61fa9,61fa9_session1_lista_naming_trial095_dummy.wav,1,a,naming,95,dummy,1055,correct,NA,Mar  6 2023 05:41:06,Agnieszka,1
61fa9,61fa9_session1_lista_naming_trial096_plumber.wav,1,a,naming,96,plumber,1476,correct,NA,Mar  6 2023 05:41:22,Agnieszka,1
61fa9,61fa9_session1_lista_naming_trial097_flipper.wav,1,a,naming,97,flipper,1030,correct,NA,Mar  6 2023 05:41:33,Agnieszka,1
61fa9,61fa9_session1_lista_naming_trial098_scissors.wav,1,a,naming,98,scissors,699,correct,NA,Mar  6 2023 05:41:42,Agnieszka,1
61fa9,61fa9_session1_lista_naming_trial099_crab.wav,1,a,naming,99,crab,737,correct,NA,Mar  6 2023 05:41:56,Agnieszka,1
61fa9,61fa9_session1_lista_naming_trial100_suit.wav,1,a,naming,100,suit,807,correct,NA,Mar  6 2023 05:42:07,Agnieszka,1
61fa9,61fa9_session1_lista_naming_trial101_doughnut.wav,1,a,naming,101,doughnut,1052,correct,NA,Mar  6 2023 05:42:14,Agnieszka,1
61fa9,61fa9_session1_lista_naming_trial102_fireplace.wav,1,a,naming,102,fireplace,973,correct,NA,Mar  6 2023 05:42:21,Agnieszka,1
61fa9,61fa9_session1_lista_naming_trial103_key.wav,1,a,naming,103,key,810,correct,NA,Mar  6 2023 05:42:37,Agnieszka,1
61fa9,61fa9_session1_lista_naming_trial104_train.wav,1,a,naming,104,train,775,correct,NA,Mar  6 2023 05:42:49,Agnieszka,1
61fa9,61fa9_session1_lista_naming_trial105_tie.wav,1,a,naming,105,tie,966,correct,NA,Mar  6 2023 05:42:59,Agnieszka,1
61fa9,61fa9_session1_lista_naming_trial106_onion.wav,1,a,naming,106,onion,1132,correct,NA,Mar  6 2023 05:43:08,Agnieszka,1
61fa9,61fa9_session1_lista_naming_trial107_candle.wav,1,a,naming,107,candle,976,correct,NA,Mar  6 2023 05:43:17,Agnieszka,1
61fa9,61fa9_session1_lista_naming_trial108_lamp.wav,1,a,naming,108,lamp,915,correct,NA,Mar  6 2023 05:43:28,Agnieszka,1
61fa9,61fa9_session1_lista_naming_trial109_bench.wav,1,a,naming,109,bench,868,correct,NA,Mar  6 2023 05:43:36,Agnieszka,1
61fa9,61fa9_session1_lista_naming_trial110_orange.wav,1,a,naming,110,orange,989,correct,NA,Mar  6 2023 05:43:45,Agnieszka,1
61fa9,61fa9_session1_lista_naming_trial111_star.wav,1,a,naming,111,star,692,correct,NA,Mar  6 2023 05:43:53,Agnieszka,1
61fa9,61fa9_session1_lista_naming_trial112_wheelbarrow.wav,1,a,naming,112,wheelbarrow,912,correct,NA,Mar  6 2023 05:44:02,Agnieszka,1
61fa9,61fa9_session1_lista_naming_trial113_cork.wav,1,a,naming,113,cork,985,correct,NA,Mar  6 2023 05:44:10,Agnieszka,1
61fa9,61fa9_session1_lista_naming_trial114_rabbit.wav,1,a,naming,114,rabbit,973,correct,NA,Mar  6 2023 05:44:21,Agnieszka,1
61fa9,61fa9_session1_lista_naming_trial115_ghost.wav,1,a,naming,115,ghost,747,correct,NA,Mar  6 2023 05:44:31,Agnieszka,1
61fa9,61fa9_session1_lista_naming_trial116_shower.wav,1,a,naming,116,shower,954,correct,NA,Mar  6 2023 05:44:38,Agnieszka,1
61fa9,61fa9_session1_lista_naming_trial117_pear.wav,1,a,naming,117,pear,804,correct,NA,Mar  6 2023 05:44:47,Agnieszka,1
61fa9,61fa9_session1_lista_naming_trial118_sun.wav,1,a,naming,118,sun,670,correct,NA,Mar  6 2023 05:44:54,Agnieszka,1
61fa9,61fa9_session1_lista_naming_trial119_bus.wav,1,a,naming,119,bus,992,correct,NA,Mar  6 2023 05:45:02,Agnieszka,1
61fa9,61fa9_session1_lista_naming_trial120_bell.wav,1,a,naming,120,bell,1008,correct,NA,Mar  6 2023 05:45:10,Agnieszka,1
61fa9,61fa9_session1_lista_naming_trial121_ear.wav,1,a,naming,121,ear,820,correct,NA,Mar  6 2023 05:45:19,Agnieszka,1
61fa9,61fa9_session1_lista_naming_trial122_bracelet.wav,1,a,naming,122,bracelet,954,correct,NA,Mar  6 2023 05:45:27,Agnieszka,1
61fa9,61fa9_session1_lista_naming_trial123_shield.wav,1,a,naming,123,shield,817,correct,NA,Mar  6 2023 05:45:36,Agnieszka,1
61fa9,61fa9_session1_lista_naming_trial124_rose.wav,1,a,naming,124,rose,731,correct,NA,Mar  6 2023 05:45:53,Agnieszka,1
61fa9,61fa9_session1_lista_naming_trial125_camel.wav,1,a,naming,125,camel,807,correct,NA,Mar  6 2023 05:49:35,Agnieszka,1
61fa9,61fa9_session1_lista_naming_trial126_kangaroo.wav,1,a,naming,126,kangaroo,906,correct,NA,Mar  6 2023 05:49:49,Agnieszka,1
61fa9,61fa9_session1_lista_naming_trial127_kitchen.wav,1,a,naming,127,kitchen,1094,correct,NA,Mar  6 2023 05:50:07,Agnieszka,1
61fa9,61fa9_session1_lista_naming_trial128_triangle.wav,1,a,naming,128,triangle,992,correct,NA,Mar  6 2023 05:50:21,Agnieszka,1
61fa9,61fa9_session1_lista_naming_trial129_potato.wav,1,a,naming,129,potato,829,correct,NA,Mar  6 2023 05:50:29,Agnieszka,1
61fa9,61fa9_session1_lista_naming_trial130_saw.wav,1,a,naming,130,saw,753,correct,NA,Mar  6 2023 05:50:38,Agnieszka,1
61fa9,61fa9_session1_lista_naming_trial131_compass.wav,1,a,naming,131,compass,1387,correct,NA,Mar  6 2023 05:50:53,Agnieszka,1
61fa9,61fa9_session1_lista_naming_trial132_clown.wav,1,a,naming,132,clown,778,correct,NA,Mar  6 2023 05:51:04,Agnieszka,1
61fa9,61fa9_session1_lista_naming_trial133_doctor.wav,1,a,naming,133,doctor,954,correct,NA,Mar  6 2023 05:51:11,Agnieszka,1
61fa9,61fa9_session1_lista_naming_trial134_pepper.wav,1,a,naming,134,pepper,992,correct,NA,Mar  6 2023 05:51:24,Agnieszka,1
61fa9,61fa9_session1_lista_naming_trial135_bone.wav,1,a,naming,135,bone,711,correct,NA,Mar  6 2023 05:51:35,Agnieszka,1
61fa9,61fa9_session1_lista_naming_trial136_glove.wav,1,a,naming,136,glove,1036,correct,NA,Mar  6 2023 05:51:45,Agnieszka,1
61fa9,61fa9_session1_lista_naming_trial137_comb.wav,1,a,naming,137,comb,1103,correct,NA,Mar  6 2023 05:51:55,Agnieszka,1
61fa9,61fa9_session1_lista_naming_trial138_caterpillar.wav,1,a,naming,138,caterpillar,852,correct,NA,Mar  6 2023 05:52:06,Agnieszka,1
61fa9,61fa9_session1_lista_naming_trial139_book.wav,1,a,naming,139,book,906,correct,NA,Mar  6 2023 05:52:20,Agnieszka,1
61fa9,61fa9_session1_lista_naming_trial140_pencil.wav,1,a,naming,140,pencil,711,correct,NA,Mar  6 2023 05:53:53,Agnieszka,1
61fa9,61fa9_session1_lista_naming_trial141_circle.wav,1,a,naming,141,circle,724,correct,NA,Mar  6 2023 05:54:06,Agnieszka,1
61fa9,61fa9_session1_lista_naming_trial142_basket.wav,1,a,naming,142,basket,797,correct,NA,Mar  6 2023 05:55:50,Agnieszka,1
61fa9,61fa9_session1_lista_naming_trial143_magnet.wav,1,a,naming,143,magnet,753,correct,NA,Mar  6 2023 05:56:01,Agnieszka,1
61fa9,61fa9_session1_lista_naming_trial144_squirrel.wav,1,a,naming,144,squirrel,708,correct,NA,Mar  6 2023 05:56:12,Agnieszka,1
61fa9,61fa9_session1_lista_naming_trial145_goat.wav,1,a,naming,145,goat,982,correct,NA,Mar  6 2023 05:56:29,Agnieszka,1
61fa9,61fa9_session1_lista_naming_trial146_mouth.wav,1,a,naming,146,mouth,-1,disfluency,NA,Mar  6 2023 05:56:38,Agnieszka,1
61fa9,61fa9_session1_lista_naming_trial147_donkey.wav,1,a,naming,147,donkey,1116,correct,NA,Mar  6 2023 05:56:48,Agnieszka,1
61fa9,61fa9_session1_lista_naming_trial148_peg.wav,1,a,naming,148,peg,810,correct,NA,Mar  6 2023 05:56:56,Agnieszka,1
61fa9,61fa9_session1_lista_naming_trial149_butterfly.wav,1,a,naming,149,butterfly,740,correct,NA,Mar  6 2023 05:57:04,Agnieszka,1
61fa9,61fa9_session1_lista_naming_trial150_rocket.wav,1,a,naming,150,rocket,1043,correct,NA,Mar  6 2023 05:57:12,Agnieszka,1
