Participant_ID,File_Name,Session,List,Type_Trial,Trial_Nbr,Target,RT,Response_Trial,Comment,Date_Correction,Assessor_Name,Processed
611cf,611cf_session1_lista_naming_trial001_sun.wav,1,a,naming,1,sun,746,correct,NA,Oct 31 2022 20:23:28,Shereen,1
611cf,611cf_session1_lista_naming_trial002_basket.wav,1,a,naming,2,basket,693,correct,NA,Oct 31 2022 20:23:34,Shereen,1
611cf,611cf_session1_lista_naming_trial003_caterpillar.wav,1,a,naming,3,caterpillar,795,correct,NA,Oct 31 2022 20:23:42,Shereen,1
611cf,611cf_session1_lista_naming_trial004_puppet.wav,1,a,naming,4,puppet,977,correct,NA,Oct 31 2022 20:23:55,Shereen,1
611cf,611cf_session1_lista_naming_trial005_tomato.wav,1,a,naming,5,tomato,732,correct,NA,Oct 31 2022 20:24:12,Shereen,1
611cf,611cf_session1_lista_naming_trial006_apple.wav,1,a,naming,6,apple,825,correct,NA,Oct 31 2022 20:24:26,Shereen,1
611cf,611cf_session1_lista_naming_trial007_lighter.wav,1,a,naming,7,lighter,717,correct,NA,Oct 31 2022 20:24:43,Shereen,1
611cf,611cf_session1_lista_naming_trial008_zebra.wav,1,a,naming,8,zebra,-1,disfluency,NA,Oct 31 2022 20:24:54,Shereen,1
611cf,611cf_session1_lista_naming_trial009_battery.wav,1,a,naming,9,battery,1340,correct,NA,Oct 31 2022 20:25:03,Shereen,1
611cf,611cf_session1_lista_naming_trial010_bus.wav,1,a,naming,10,bus,874,correct,NA,Oct 31 2022 20:25:13,Shereen,1
611cf,611cf_session1_lista_naming_trial011_tap.wav,1,a,naming,11,tap,928,correct,NA,Oct 31 2022 20:25:19,Shereen,1
611cf,611cf_session1_lista_naming_trial012_helicopter.wav,1,a,naming,12,helicopter,766,correct,NA,Oct 31 2022 20:25:24,Shereen,1
611cf,611cf_session1_lista_naming_trial013_pipe.wav,1,a,naming,13,pipe,894,correct,NA,Oct 31 2022 20:25:32,Shereen,1
611cf,611cf_session1_lista_naming_trial014_medal.wav,1,a,naming,14,medal,766,correct,NA,Oct 31 2022 20:25:39,Shereen,1
611cf,611cf_session1_lista_naming_trial015_mountain.wav,1,a,naming,15,mountain,835,correct,NA,Oct 31 2022 20:25:47,Shereen,1
611cf,611cf_session1_lista_naming_trial016_teacher.wav,1,a,naming,16,teacher,599,correct,NA,Oct 31 2022 20:26:00,Shereen,1
611cf,611cf_session1_lista_naming_trial017_soap.wav,1,a,naming,17,soap,727,correct,NA,Oct 31 2022 20:26:06,Shereen,1
611cf,611cf_session1_lista_naming_trial018_skirt.wav,1,a,naming,18,skirt,1153,correct,NA,Oct 31 2022 20:26:13,Shereen,1
611cf,611cf_session1_lista_naming_trial019_butter.wav,1,a,naming,19,butter,1065,correct,NA,Oct 31 2022 20:26:20,Shereen,1
611cf,611cf_session1_lista_naming_trial020_flower.wav,1,a,naming,20,flower,1099,correct,NA,Oct 31 2022 20:26:28,Shereen,1
611cf,611cf_session1_lista_naming_trial021_pencil.wav,1,a,naming,21,pencil,697,correct,NA,Oct 31 2022 20:26:36,Shereen,1
611cf,611cf_session1_lista_naming_trial022_tiger.wav,1,a,naming,22,tiger,898,correct,NA,Oct 31 2022 20:26:44,Shereen,1
611cf,611cf_session1_lista_naming_trial023_sword.wav,1,a,naming,23,sword,879,correct,NA,Oct 31 2022 20:26:49,Shereen,1
611cf,611cf_session1_lista_naming_trial024_potato.wav,1,a,naming,24,potato,742,correct,NA,Oct 31 2022 20:27:00,Shereen,1
611cf,611cf_session1_lista_naming_trial025_wall.wav,1,a,naming,25,wall,879,correct,NA,Oct 31 2022 20:27:06,Shereen,1
611cf,611cf_session1_lista_naming_trial026_cork.wav,1,a,naming,26,cork,1016,correct,NA,Oct 31 2022 20:27:15,Shereen,1
611cf,611cf_session1_lista_naming_trial027_sweet.wav,1,a,naming,27,sweet,825,correct,NA,Oct 31 2022 20:27:30,Shereen,1
611cf,611cf_session1_lista_naming_trial028_carrot.wav,1,a,naming,28,carrot,693,correct,NA,Oct 31 2022 20:27:37,Shereen,1
611cf,611cf_session1_lista_naming_trial029_triangle.wav,1,a,naming,29,triangle,751,correct,NA,Oct 31 2022 20:27:44,Shereen,1
611cf,611cf_session1_lista_naming_trial030_drawer.wav,1,a,naming,30,drawer,928,correct,NA,Oct 31 2022 20:27:50,Shereen,1
611cf,611cf_session1_lista_naming_trial031_ruler.wav,1,a,naming,31,ruler,712,correct,NA,Oct 31 2022 20:27:57,Shereen,1
611cf,611cf_session1_lista_naming_trial032_fork.wav,1,a,naming,32,fork,624,correct,NA,Oct 31 2022 20:28:08,Shereen,1
611cf,611cf_session1_lista_naming_trial033_bell.wav,1,a,naming,33,bell,1109,correct,NA,Oct 31 2022 20:28:19,Shereen,1
611cf,611cf_session1_lista_naming_trial034_arrow.wav,1,a,naming,34,arrow,775,correct,NA,Oct 31 2022 20:28:28,Shereen,1
611cf,611cf_session1_lista_naming_trial035_fireplace.wav,1,a,naming,35,fireplace,-1,wrong_word,NA,Oct 31 2022 20:28:44,Shereen,1
611cf,611cf_session1_lista_naming_trial036_limo.wav,1,a,naming,36,limo,884,correct,NA,Oct 31 2022 20:29:00,Shereen,1
611cf,611cf_session1_lista_naming_trial037_robot.wav,1,a,naming,37,robot,800,correct,NA,Oct 31 2022 20:29:06,Shereen,1
611cf,611cf_session1_lista_naming_trial038_olive.wav,1,a,naming,38,olive,1310,correct,NA,Oct 31 2022 20:29:14,Shereen,1
611cf,611cf_session1_lista_naming_trial039_bull.wav,1,a,naming,39,bull,1070,correct,NA,Oct 31 2022 20:29:34,Shereen,1
611cf,611cf_session1_lista_naming_trial040_camel.wav,1,a,naming,40,camel,1080,correct,NA,Oct 31 2022 20:29:41,Shereen,1
611cf,611cf_session1_lista_naming_trial041_dress.wav,1,a,naming,41,dress,815,correct,NA,Oct 31 2022 20:29:49,Shereen,1
611cf,611cf_session1_lista_naming_trial042_map.wav,1,a,naming,42,map,849,correct,NA,Oct 31 2022 20:29:58,Shereen,1
611cf,611cf_session1_lista_naming_trial043_donkey.wav,1,a,naming,43,donkey,1129,correct,NA,Oct 31 2022 20:30:05,Shereen,1
611cf,611cf_session1_lista_naming_trial044_knife.wav,1,a,naming,44,knife,737,correct,NA,Oct 31 2022 20:30:14,Shereen,1
611cf,611cf_session1_lista_naming_trial045_tree.wav,1,a,naming,45,tree,830,correct,NA,Oct 31 2022 20:30:20,Shereen,1
611cf,611cf_session1_lista_naming_trial046_book.wav,1,a,naming,46,book,751,correct,NA,Oct 31 2022 20:30:30,Shereen,1
611cf,611cf_session1_lista_naming_trial047_tongue.wav,1,a,naming,47,tongue,933,correct,NA,Oct 31 2022 20:30:38,Shereen,1
611cf,611cf_session1_lista_naming_trial048_candle.wav,1,a,naming,48,candle,712,correct,NA,Oct 31 2022 20:30:45,Shereen,1
611cf,611cf_session1_lista_naming_trial049_tambourine.wav,1,a,naming,49,tambourine,805,correct,NA,Oct 31 2022 20:30:55,Shereen,1
611cf,611cf_session1_lista_naming_trial050_ear.wav,1,a,naming,50,ear,683,correct,NA,Oct 31 2022 20:31:02,Shereen,1
611cf,611cf_session1_lista_naming_trial051_glove.wav,1,a,naming,51,glove,972,correct,NA,Oct 31 2022 20:31:10,Shereen,1
611cf,611cf_session1_lista_naming_trial052_saw.wav,1,a,naming,52,saw,952,correct,NA,Oct 31 2022 20:31:16,Shereen,1
611cf,611cf_session1_lista_naming_trial053_fridge.wav,1,a,naming,53,fridge,776,correct,NA,Oct 31 2022 20:31:22,Shereen,1
611cf,611cf_session1_lista_naming_trial054_island.wav,1,a,naming,54,island,1526,correct,NA,Oct 31 2022 20:31:29,Shereen,1
611cf,611cf_session1_lista_naming_trial055_koala.wav,1,a,naming,55,koala,1256,correct,NA,Oct 31 2022 20:31:36,Shereen,1
611cf,611cf_session1_lista_naming_trial056_dummy.wav,1,a,naming,56,dummy,849,correct,NA,Oct 31 2022 20:31:46,Shereen,1
611cf,611cf_session1_lista_naming_trial057_rhino.wav,1,a,naming,57,rhino,761,correct,NA,Oct 31 2022 20:31:53,Shereen,1
611cf,611cf_session1_lista_naming_trial058_lighthouse.wav,1,a,naming,58,lighthouse,952,correct,NA,Oct 31 2022 20:32:07,Shereen,1
611cf,611cf_session1_lista_naming_trial059_heel.wav,1,a,naming,59,heel,776,correct,NA,Oct 31 2022 20:32:13,Shereen,1
611cf,611cf_session1_lista_naming_trial060_compass.wav,1,a,naming,60,compass,1016,correct,NA,Oct 31 2022 20:32:18,Shereen,1
611cf,611cf_session1_lista_naming_trial061_bullet.wav,1,a,naming,61,bullet,1305,correct,NA,Oct 31 2022 20:32:24,Shereen,1
611cf,611cf_session1_lista_naming_trial062_elbow.wav,1,a,naming,62,elbow,1041,correct,NA,Oct 31 2022 20:32:31,Shereen,1
611cf,611cf_session1_lista_naming_trial063_queen.wav,1,a,naming,63,queen,898,correct,NA,Oct 31 2022 20:32:39,Shereen,1
611cf,611cf_session1_lista_naming_trial064_curtain.wav,1,a,naming,64,curtain,859,correct,NA,Oct 31 2022 20:32:46,Shereen,1
611cf,611cf_session1_lista_naming_trial065_kite.wav,1,a,naming,65,kite,918,correct,NA,Oct 31 2022 20:32:52,Shereen,1
611cf,611cf_session1_lista_naming_trial066_shield.wav,1,a,naming,66,shield,1281,correct,NA,Oct 31 2022 20:32:58,Shereen,1
611cf,611cf_session1_lista_naming_trial067_suitcase.wav,1,a,naming,67,suitcase,928,correct,NA,Oct 31 2022 20:33:04,Shereen,1
611cf,611cf_session1_lista_naming_trial068_arm.wav,1,a,naming,68,arm,1055,correct,NA,Oct 31 2022 20:33:09,Shereen,1
611cf,611cf_session1_lista_naming_trial069_peg.wav,1,a,naming,69,peg,849,correct,NA,Oct 31 2022 20:33:16,Shereen,1
611cf,611cf_session1_lista_naming_trial070_magnet.wav,1,a,naming,70,magnet,815,correct,NA,Oct 31 2022 20:33:23,Shereen,1
611cf,611cf_session1_lista_naming_trial071_wheelbarrow.wav,1,a,naming,71,wheelbarrow,693,correct,NA,Oct 31 2022 20:33:30,Shereen,1
611cf,611cf_session1_lista_naming_trial072_judge.wav,1,a,naming,72,judge,761,correct,NA,Oct 31 2022 20:33:36,Shereen,1
611cf,611cf_session1_lista_naming_trial073_bib.wav,1,a,naming,73,bib,987,correct,NA,Oct 31 2022 20:33:44,Shereen,1
611cf,611cf_session1_lista_naming_trial074_shoe.wav,1,a,naming,74,shoe,742,correct,NA,Oct 31 2022 20:33:50,Shereen,1
611cf,611cf_session1_lista_naming_trial075_tray.wav,1,a,naming,75,tray,820,correct,NA,Oct 31 2022 20:33:59,Shereen,1
611cf,611cf_session1_lista_naming_trial076_jellyfish.wav,1,a,naming,76,jellyfish,1168,correct,NA,Oct 31 2022 20:34:05,Shereen,1
611cf,611cf_session1_lista_naming_trial077_comb.wav,1,a,naming,77,comb,835,correct,NA,Oct 31 2022 20:34:14,Shereen,1
611cf,611cf_session1_lista_naming_trial078_circle.wav,1,a,naming,78,circle,770,correct,NA,Oct 31 2022 20:34:29,Shereen,1
611cf,611cf_session1_lista_naming_trial079_pocket.wav,1,a,naming,79,pocket,1129,correct,NA,Oct 31 2022 20:34:35,Shereen,1
611cf,611cf_session1_lista_naming_trial080_flag.wav,1,a,naming,80,flag,658,correct,NA,Oct 31 2022 20:34:44,Shereen,1
611cf,611cf_session1_lista_naming_trial081_tunnel.wav,1,a,naming,81,tunnel,840,correct,NA,Oct 31 2022 20:34:50,Shereen,1
611cf,611cf_session1_lista_naming_trial082_doughnut.wav,1,a,naming,82,doughnut,761,correct,NA,Oct 31 2022 20:34:57,Shereen,1
611cf,611cf_session1_lista_naming_trial083_windmill.wav,1,a,naming,83,windmill,1099,correct,NA,Oct 31 2022 20:35:08,Shereen,1
611cf,611cf_session1_lista_naming_trial084_plumber.wav,1,a,naming,84,plumber,1139,correct,NA,Oct 31 2022 20:35:18,Shereen,1
611cf,611cf_session1_lista_naming_trial085_onion.wav,1,a,naming,85,onion,987,correct,NA,Oct 31 2022 20:35:24,Shereen,1
611cf,611cf_session1_lista_naming_trial086_coat.wav,1,a,naming,86,coat,982,correct,NA,Oct 31 2022 20:35:32,Shereen,1
611cf,611cf_session1_lista_naming_trial087_pear.wav,1,a,naming,87,pear,717,correct,NA,Oct 31 2022 20:35:39,Shereen,1
611cf,611cf_session1_lista_naming_trial088_ghost.wav,1,a,naming,88,ghost,957,correct,NA,Oct 31 2022 20:35:45,Shereen,1
611cf,611cf_session1_lista_naming_trial089_orange.wav,1,a,naming,89,orange,835,correct,NA,Oct 31 2022 20:35:51,Shereen,1
611cf,611cf_session1_lista_naming_trial090_castle.wav,1,a,naming,90,castle,918,correct,NA,Oct 31 2022 20:35:57,Shereen,1
611cf,611cf_session1_lista_naming_trial091_scissors.wav,1,a,naming,91,scissors,683,correct,NA,Oct 31 2022 20:36:04,Shereen,1
611cf,611cf_session1_lista_naming_trial092_lung.wav,1,a,naming,92,lung,1050,correct,NA,Oct 31 2022 20:36:19,Shereen,1
611cf,611cf_session1_lista_naming_trial093_suit.wav,1,a,naming,93,suit,820,correct,NA,Oct 31 2022 20:36:26,Shereen,1
611cf,611cf_session1_lista_naming_trial094_squirrel.wav,1,a,naming,94,squirrel,751,correct,NA,Oct 31 2022 20:36:34,Shereen,1
611cf,611cf_session1_lista_naming_trial095_submarine.wav,1,a,naming,95,submarine,1256,correct,NA,Oct 31 2022 20:36:41,Shereen,1
611cf,611cf_session1_lista_naming_trial096_cherry.wav,1,a,naming,96,cherry,874,correct,NA,Oct 31 2022 20:36:47,Shereen,1
611cf,611cf_session1_lista_naming_trial097_lamp.wav,1,a,naming,97,lamp,786,correct,NA,Oct 31 2022 20:36:54,Shereen,1
611cf,611cf_session1_lista_naming_trial098_star.wav,1,a,naming,98,star,771,correct,NA,Oct 31 2022 20:37:03,Shereen,1
611cf,611cf_session1_lista_naming_trial099_whale.wav,1,a,naming,99,whale,1884,correct,NA,Oct 31 2022 20:37:23,Shereen,1
611cf,611cf_session1_lista_naming_trial100_bear.wav,1,a,naming,100,bear,879,correct,NA,Oct 31 2022 20:37:31,Shereen,1
611cf,611cf_session1_lista_naming_trial101_wing.wav,1,a,naming,101,wing,1065,correct,NA,Oct 31 2022 20:37:41,Shereen,1
611cf,611cf_session1_lista_naming_trial102_net.wav,1,a,naming,102,net,854,correct,NA,Oct 31 2022 20:37:46,Shereen,1
611cf,611cf_session1_lista_naming_trial103_rose.wav,1,a,naming,103,rose,668,correct,NA,Oct 31 2022 20:37:52,Shereen,1
611cf,611cf_session1_lista_naming_trial104_crab.wav,1,a,naming,104,crab,688,correct,NA,Oct 31 2022 20:37:59,Shereen,1
611cf,611cf_session1_lista_naming_trial105_flipper.wav,1,a,naming,105,flipper,869,correct,NA,Oct 31 2022 20:38:06,Shereen,1
611cf,611cf_session1_lista_naming_trial106_mouth.wav,1,a,naming,106,mouth,928,correct,NA,Oct 31 2022 20:38:17,Shereen,1
611cf,611cf_session1_lista_naming_trial107_clown.wav,1,a,naming,107,clown,894,correct,NA,Oct 31 2022 20:38:27,Shereen,1
611cf,611cf_session1_lista_naming_trial108_bracelet.wav,1,a,naming,108,bracelet,722,correct,NA,Oct 31 2022 20:38:36,Shereen,1
611cf,611cf_session1_lista_naming_trial109_train.wav,1,a,naming,109,train,952,correct,NA,Oct 31 2022 20:38:42,Shereen,1
611cf,611cf_session1_lista_naming_trial110_rabbit.wav,1,a,naming,110,rabbit,688,correct,NA,Oct 31 2022 20:38:48,Shereen,1
611cf,611cf_session1_lista_naming_trial111_owl.wav,1,a,naming,111,owl,766,correct,NA,Oct 31 2022 20:38:57,Shereen,1
611cf,611cf_session1_lista_naming_trial112_sausage.wav,1,a,naming,112,sausage,820,correct,NA,Oct 31 2022 20:39:04,Shereen,1
611cf,611cf_session1_lista_naming_trial113_kangaroo.wav,1,a,naming,113,kangaroo,859,correct,NA,Oct 31 2022 20:39:10,Shereen,1
611cf,611cf_session1_lista_naming_trial114_pineapple.wav,1,a,naming,114,pineapple,786,correct,NA,Oct 31 2022 20:39:17,Shereen,1
611cf,611cf_session1_lista_naming_trial115_boxer.wav,1,a,naming,115,boxer,913,correct,NA,Oct 31 2022 20:39:22,Shereen,1
611cf,611cf_session1_lista_naming_trial116_tattoo.wav,1,a,naming,116,tattoo,952,correct,NA,Oct 31 2022 20:39:30,Shereen,1
611cf,611cf_session1_lista_naming_trial117_pepper.wav,1,a,naming,117,pepper,952,correct,NA,Oct 31 2022 20:39:40,Shereen,1
611cf,611cf_session1_lista_naming_trial118_thumb.wav,1,a,naming,118,thumb,761,correct,NA,Oct 31 2022 20:39:48,Shereen,1
611cf,611cf_session1_lista_naming_trial119_beak.wav,1,a,naming,119,beak,1070,correct,NA,Oct 31 2022 20:39:54,Shereen,1
611cf,611cf_session1_lista_naming_trial120_mermaid.wav,1,a,naming,120,mermaid,933,correct,NA,Oct 31 2022 20:39:59,Shereen,1
611cf,611cf_session1_lista_naming_trial121_zip.wav,1,a,naming,121,zip,928,correct,NA,Oct 31 2022 20:40:06,Shereen,1
611cf,611cf_session1_lista_naming_trial122_kiwi.wav,1,a,naming,122,kiwi,761,correct,NA,Oct 31 2022 20:40:13,Shereen,1
611cf,611cf_session1_lista_naming_trial123_fox.wav,1,a,naming,123,fox,781,correct,NA,Oct 31 2022 20:40:49,Shereen,1
611cf,611cf_session1_lista_naming_trial124_tractor.wav,1,a,naming,124,tractor,663,correct,NA,Oct 31 2022 20:41:03,Shereen,1
611cf,611cf_session1_lista_naming_trial125_gym.wav,1,a,naming,125,gym,952,correct,NA,Oct 31 2022 20:41:09,Shereen,1
611cf,611cf_session1_lista_naming_trial126_wave.wav,1,a,naming,126,wave,849,correct,NA,Oct 31 2022 20:41:19,Shereen,1
611cf,611cf_session1_lista_naming_trial127_nest.wav,1,a,naming,127,nest,923,correct,NA,Oct 31 2022 20:41:28,Shereen,1
611cf,611cf_session1_lista_naming_trial128_drum.wav,1,a,naming,128,drum,776,correct,NA,Oct 31 2022 20:41:35,Shereen,1
611cf,611cf_session1_lista_naming_trial129_dice.wav,1,a,naming,129,dice,712,correct,NA,Oct 31 2022 20:41:45,Shereen,1
611cf,611cf_session1_lista_naming_trial130_fence.wav,1,a,naming,130,fence,624,correct,NA,Oct 31 2022 20:41:51,Shereen,1
611cf,611cf_session1_lista_naming_trial131_hat.wav,1,a,naming,131,hat,668,correct,NA,Oct 31 2022 20:41:57,Shereen,1
611cf,611cf_session1_lista_naming_trial132_bottle.wav,1,a,naming,132,bottle,717,correct,NA,Oct 31 2022 20:42:03,Shereen,1
611cf,611cf_session1_lista_naming_trial133_bone.wav,1,a,naming,133,bone,795,correct,NA,Oct 31 2022 20:42:09,Shereen,1
611cf,611cf_session1_lista_naming_trial134_rocket.wav,1,a,naming,134,rocket,884,correct,NA,Oct 31 2022 20:42:18,Shereen,1
611cf,611cf_session1_lista_naming_trial135_computer.wav,1,a,naming,135,computer,776,correct,NA,Oct 31 2022 20:42:22,Shereen,1
611cf,611cf_session1_lista_naming_trial136_snake.wav,1,a,naming,136,snake,781,correct,NA,Oct 31 2022 20:42:30,Shereen,1
611cf,611cf_session1_lista_naming_trial137_kitchen.wav,1,a,naming,137,kitchen,859,correct,NA,Oct 31 2022 20:42:35,Shereen,1
611cf,611cf_session1_lista_naming_trial138_tie.wav,1,a,naming,138,tie,727,correct,NA,Oct 31 2022 20:42:45,Shereen,1
611cf,611cf_session1_lista_naming_trial139_shower.wav,1,a,naming,139,shower,879,correct,NA,Oct 31 2022 20:42:50,Shereen,1
611cf,611cf_session1_lista_naming_trial140_swan.wav,1,a,naming,140,swan,810,correct,NA,Oct 31 2022 20:43:01,Shereen,1
611cf,611cf_session1_lista_naming_trial141_butterfly.wav,1,a,naming,141,butterfly,766,correct,NA,Oct 31 2022 20:43:13,Shereen,1
611cf,611cf_session1_lista_naming_trial142_doctor.wav,1,a,naming,142,doctor,835,correct,NA,Oct 31 2022 20:43:20,Shereen,1
611cf,611cf_session1_lista_naming_trial143_lawnmower.wav,1,a,naming,143,lawnmower,898,correct,NA,Oct 31 2022 20:43:33,Shereen,1
611cf,611cf_session1_lista_naming_trial144_bench.wav,1,a,naming,144,bench,707,correct,NA,Oct 31 2022 20:43:41,Shereen,1
611cf,611cf_session1_lista_naming_trial145_bike.wav,1,a,naming,145,bike,1145,correct,NA,Oct 31 2022 20:43:55,Shereen,1
611cf,611cf_session1_lista_naming_trial146_key.wav,1,a,naming,146,key,923,correct,NA,Oct 31 2022 20:44:05,Shereen,1
611cf,611cf_session1_lista_naming_trial147_avocado.wav,1,a,naming,147,avocado,947,correct,NA,Oct 31 2022 20:44:18,Shereen,1
611cf,611cf_session1_lista_naming_trial148_hippo.wav,1,a,naming,148,hippo,1193,correct,NA,Oct 31 2022 20:44:32,Shereen,1
611cf,611cf_session1_lista_naming_trial149_fairy.wav,1,a,naming,149,fairy,889,correct,NA,Oct 31 2022 20:44:39,Shereen,1
611cf,611cf_session1_lista_naming_trial150_goat.wav,1,a,naming,150,goat,1150,correct,NA,Oct 31 2022 20:44:46,Shereen,1
