Participant_ID,File_Name,Session,List,Type_Trial,Trial_Nbr,Target,RT,Response_Trial,Comment,Date_Correction,Assessor_Name,Processed
62a1e,62a1e_session1_lista_naming_trial001_map.wav,1,a,naming,1,map,832,correct,NA,Mar  6 2023 06:02:08,Agnieszka,1
62a1e,62a1e_session1_lista_naming_trial002_battery.wav,1,a,naming,2,battery,832,correct,NA,Mar  6 2023 06:02:22,Agnieszka,1
62a1e,62a1e_session1_lista_naming_trial003_flipper.wav,1,a,naming,3,flipper,1282,correct,NA,Mar  6 2023 06:02:29,Agnieszka,1
62a1e,62a1e_session1_lista_naming_trial004_dummy.wav,1,a,naming,4,dummy,832,correct,NA,Mar  6 2023 06:02:39,Agnieszka,1
62a1e,62a1e_session1_lista_naming_trial005_helicopter.wav,1,a,naming,5,helicopter,756,correct,NA,Mar  6 2023 06:02:49,Agnieszka,1
62a1e,62a1e_session1_lista_naming_trial006_hat.wav,1,a,naming,6,hat,651,correct,NA,Mar  6 2023 06:03:00,Agnieszka,1
62a1e,62a1e_session1_lista_naming_trial007_fairy.wav,1,a,naming,7,fairy,715,correct,NA,Mar  6 2023 06:03:08,Agnieszka,1
62a1e,62a1e_session1_lista_naming_trial008_lawnmower.wav,1,a,naming,8,lawnmower,762,correct,NA,Mar  6 2023 06:03:18,Agnieszka,1
62a1e,62a1e_session1_lista_naming_trial009_rose.wav,1,a,naming,9,rose,686,correct,NA,Mar  6 2023 06:03:28,Agnieszka,1
62a1e,62a1e_session1_lista_naming_trial010_crab.wav,1,a,naming,10,crab,676,correct,NA,Mar  6 2023 06:03:38,Agnieszka,1
62a1e,62a1e_session1_lista_naming_trial011_computer.wav,1,a,naming,11,computer,705,correct,NA,Mar  6 2023 06:03:49,Agnieszka,1
62a1e,62a1e_session1_lista_naming_trial012_kiwi.wav,1,a,naming,12,kiwi,817,correct,NA,Mar  6 2023 06:03:58,Agnieszka,1
62a1e,62a1e_session1_lista_naming_trial013_tambourine.wav,1,a,naming,13,tambourine,753,correct,NA,Mar  6 2023 06:04:06,Agnieszka,1
62a1e,62a1e_session1_lista_naming_trial014_pencil.wav,1,a,naming,14,pencil,721,correct,NA,Mar  6 2023 06:04:14,Agnieszka,1
62a1e,62a1e_session1_lista_naming_trial015_bell.wav,1,a,naming,15,bell,759,correct,NA,Mar  6 2023 06:04:21,Agnieszka,1
62a1e,62a1e_session1_lista_naming_trial016_potato.wav,1,a,naming,16,potato,743,correct,NA,Mar  6 2023 06:04:32,Agnieszka,1
62a1e,62a1e_session1_lista_naming_trial017_lighter.wav,1,a,naming,17,lighter,791,correct,NA,Mar  6 2023 06:04:41,Agnieszka,1
62a1e,62a1e_session1_lista_naming_trial018_teacher.wav,1,a,naming,18,teacher,1877,correct,NA,Mar  6 2023 06:04:56,Agnieszka,1
62a1e,62a1e_session1_lista_naming_trial019_cork.wav,1,a,naming,19,cork,842,correct,NA,Mar  6 2023 06:05:08,Agnieszka,1
62a1e,62a1e_session1_lista_naming_trial020_coat.wav,1,a,naming,20,coat,1071,correct,NA,Mar  6 2023 06:05:17,Agnieszka,1
62a1e,62a1e_session1_lista_naming_trial021_pipe.wav,1,a,naming,21,pipe,868,correct,NA,Mar  6 2023 06:05:32,Agnieszka,1
62a1e,62a1e_session1_lista_naming_trial022_arm.wav,1,a,naming,22,arm,756,correct,NA,Mar  6 2023 06:05:45,Agnieszka,1
62a1e,62a1e_session1_lista_naming_trial023_squirrel.wav,1,a,naming,23,squirrel,692,correct,NA,Mar  6 2023 06:05:53,Agnieszka,1
62a1e,62a1e_session1_lista_naming_trial024_butter.wav,1,a,naming,24,butter,861,correct,NA,Mar  6 2023 06:06:08,Agnieszka,1
62a1e,62a1e_session1_lista_naming_trial025_doctor.wav,1,a,naming,25,doctor,820,correct,NA,Mar  6 2023 06:06:36,Agnieszka,1
62a1e,62a1e_session1_lista_naming_trial026_triangle.wav,1,a,naming,26,triangle,747,correct,NA,Mar  6 2023 06:06:47,Agnieszka,1
62a1e,62a1e_session1_lista_naming_trial027_rocket.wav,1,a,naming,27,rocket,813,correct,NA,Mar  6 2023 06:06:56,Agnieszka,1
62a1e,62a1e_session1_lista_naming_trial028_onion.wav,1,a,naming,28,onion,785,correct,NA,Mar  6 2023 06:09:20,Agnieszka,1
62a1e,62a1e_session1_lista_naming_trial029_zip.wav,1,a,naming,29,zip,-1,wrong_word,NA,Mar  6 2023 06:09:27,Agnieszka,1
62a1e,62a1e_session1_lista_naming_trial030_mermaid.wav,1,a,naming,30,mermaid,778,correct,NA,Mar  6 2023 06:09:34,Agnieszka,1
62a1e,62a1e_session1_lista_naming_trial031_shield.wav,1,a,naming,31,shield,864,correct,NA,Mar  6 2023 06:09:45,Agnieszka,1
62a1e,62a1e_session1_lista_naming_trial032_drawer.wav,1,a,naming,32,drawer,1075,correct,NA,Mar  6 2023 06:09:54,Agnieszka,1
62a1e,62a1e_session1_lista_naming_trial033_tongue.wav,1,a,naming,33,tongue,1313,correct,NA,Mar  6 2023 06:10:04,Agnieszka,1
62a1e,62a1e_session1_lista_naming_trial034_olive.wav,1,a,naming,34,olive,807,correct,NA,Mar  6 2023 06:10:15,Agnieszka,1
62a1e,62a1e_session1_lista_naming_trial035_tiger.wav,1,a,naming,35,tiger,868,correct,NA,Mar  6 2023 06:10:22,Agnieszka,1
62a1e,62a1e_session1_lista_naming_trial036_wave.wav,1,a,naming,36,wave,775,correct,NA,Mar  6 2023 06:10:30,Agnieszka,1
62a1e,62a1e_session1_lista_naming_trial037_queen.wav,1,a,naming,37,queen,772,correct,NA,Mar  6 2023 06:10:38,Agnieszka,1
62a1e,62a1e_session1_lista_naming_trial038_thumb.wav,1,a,naming,38,thumb,692,correct,NA,Mar  6 2023 06:10:45,Agnieszka,1
62a1e,62a1e_session1_lista_naming_trial039_bullet.wav,1,a,naming,39,bullet,810,correct,NA,Mar  6 2023 06:10:56,Agnieszka,1
62a1e,62a1e_session1_lista_naming_trial040_bracelet.wav,1,a,naming,40,bracelet,848,correct,NA,Mar  6 2023 06:11:14,Agnieszka,1
62a1e,62a1e_session1_lista_naming_trial041_whale.wav,1,a,naming,41,whale,785,correct,NA,Mar  6 2023 06:11:22,Agnieszka,1
62a1e,62a1e_session1_lista_naming_trial042_gym.wav,1,a,naming,42,gym,947,correct,NA,Mar  6 2023 06:11:30,Agnieszka,1
62a1e,62a1e_session1_lista_naming_trial043_bone.wav,1,a,naming,43,bone,848,correct,NA,Mar  6 2023 06:11:45,Agnieszka,1
62a1e,62a1e_session1_lista_naming_trial044_heel.wav,1,a,naming,44,heel,896,correct,NA,Mar  6 2023 06:11:53,Agnieszka,1
62a1e,62a1e_session1_lista_naming_trial045_carrot.wav,1,a,naming,45,carrot,785,correct,NA,Mar  6 2023 06:12:01,Agnieszka,1
62a1e,62a1e_session1_lista_naming_trial046_wing.wav,1,a,naming,46,wing,832,correct,NA,Mar  6 2023 06:12:11,Agnieszka,1
62a1e,62a1e_session1_lista_naming_trial047_fireplace.wav,1,a,naming,47,fireplace,1301,correct,NA,Mar  6 2023 06:12:21,Agnieszka,1
62a1e,62a1e_session1_lista_naming_trial048_koala.wav,1,a,naming,48,koala,782,correct,NA,Mar  6 2023 06:12:30,Agnieszka,1
62a1e,62a1e_session1_lista_naming_trial049_apple.wav,1,a,naming,49,apple,686,correct,NA,Mar  6 2023 06:12:40,Agnieszka,1
62a1e,62a1e_session1_lista_naming_trial050_fox.wav,1,a,naming,50,fox,731,correct,NA,Mar  6 2023 06:12:49,Agnieszka,1
62a1e,62a1e_session1_lista_naming_trial051_fence.wav,1,a,naming,51,fence,845,correct,NA,Mar  6 2023 06:13:02,Agnieszka,1
62a1e,62a1e_session1_lista_naming_trial052_island.wav,1,a,naming,52,island,858,correct,NA,Mar  6 2023 06:13:10,Agnieszka,1
62a1e,62a1e_session1_lista_naming_trial053_star.wav,1,a,naming,53,star,705,correct,NA,Mar  6 2023 06:13:20,Agnieszka,1
62a1e,62a1e_session1_lista_naming_trial054_lighthouse.wav,1,a,naming,54,lighthouse,877,correct,NA,Mar  6 2023 06:13:30,Agnieszka,1
62a1e,62a1e_session1_lista_naming_trial055_drum.wav,1,a,naming,55,drum,801,correct,NA,Mar  6 2023 06:13:40,Agnieszka,1
62a1e,62a1e_session1_lista_naming_trial056_zebra.wav,1,a,naming,56,zebra,702,correct,NA,Mar  6 2023 06:14:27,Agnieszka,1
62a1e,62a1e_session1_lista_naming_trial057_medal.wav,1,a,naming,57,medal,871,correct,NA,Mar  6 2023 06:14:34,Agnieszka,1
62a1e,62a1e_session1_lista_naming_trial058_avocado.wav,1,a,naming,58,avocado,887,correct,NA,Mar  6 2023 06:14:45,Agnieszka,1
62a1e,62a1e_session1_lista_naming_trial059_kite.wav,1,a,naming,59,kite,807,correct,NA,Mar  6 2023 06:14:54,Agnieszka,1
62a1e,62a1e_session1_lista_naming_trial060_camel.wav,1,a,naming,60,camel,686,correct,NA,Mar  6 2023 06:15:03,Agnieszka,1
62a1e,62a1e_session1_lista_naming_trial061_compass.wav,1,a,naming,61,compass,1212,correct,NA,Mar  6 2023 06:15:11,Agnieszka,1
62a1e,62a1e_session1_lista_naming_trial062_bike.wav,1,a,naming,62,bike,925,correct,NA,Mar  6 2023 06:15:20,Agnieszka,1
62a1e,62a1e_session1_lista_naming_trial063_knife.wav,1,a,naming,63,knife,813,correct,NA,Mar  6 2023 06:15:28,Agnieszka,1
62a1e,62a1e_session1_lista_naming_trial064_swan.wav,1,a,naming,64,swan,696,correct,NA,Mar  6 2023 06:15:36,Agnieszka,1
62a1e,62a1e_session1_lista_naming_trial065_pear.wav,1,a,naming,65,pear,1065,correct,NA,Mar  6 2023 06:15:47,Agnieszka,1
62a1e,62a1e_session1_lista_naming_trial066_glove.wav,1,a,naming,66,glove,804,correct,NA,Mar  6 2023 06:16:33,Agnieszka,1
62a1e,62a1e_session1_lista_naming_trial067_bus.wav,1,a,naming,67,bus,963,correct,NA,Mar  6 2023 06:16:42,Agnieszka,1
62a1e,62a1e_session1_lista_naming_trial068_arrow.wav,1,a,naming,68,arrow,852,correct,NA,Mar  6 2023 06:16:50,Agnieszka,1
62a1e,62a1e_session1_lista_naming_trial069_submarine.wav,1,a,naming,69,submarine,976,correct,NA,Mar  6 2023 06:16:58,Agnieszka,1
62a1e,62a1e_session1_lista_naming_trial070_ghost.wav,1,a,naming,70,ghost,934,correct,NA,Mar  6 2023 06:17:14,Agnieszka,1
62a1e,62a1e_session1_lista_naming_trial071_bottle.wav,1,a,naming,71,bottle,782,correct,NA,Mar  6 2023 06:17:22,Agnieszka,1
62a1e,62a1e_session1_lista_naming_trial072_rhino.wav,1,a,naming,72,rhino,702,correct,NA,Mar  6 2023 06:17:30,Agnieszka,1
62a1e,62a1e_session1_lista_naming_trial073_fork.wav,1,a,naming,73,fork,702,correct,NA,Mar  6 2023 06:17:41,Agnieszka,1
62a1e,62a1e_session1_lista_naming_trial074_soap.wav,1,a,naming,74,soap,912,correct,NA,Mar  6 2023 06:17:49,Agnieszka,1
62a1e,62a1e_session1_lista_naming_trial075_sun.wav,1,a,naming,75,sun,871,correct,NA,Mar  6 2023 06:17:58,Agnieszka,1
62a1e,62a1e_session1_lista_naming_trial076_butterfly.wav,1,a,naming,76,butterfly,801,correct,NA,Mar  6 2023 06:18:07,Agnieszka,1
62a1e,62a1e_session1_lista_naming_trial077_boxer.wav,1,a,naming,77,boxer,778,correct,NA,Mar  6 2023 06:18:17,Agnieszka,1
62a1e,62a1e_session1_lista_naming_trial078_dice.wav,1,a,naming,78,dice,766,correct,NA,Mar  6 2023 06:18:25,Agnieszka,1
62a1e,62a1e_session1_lista_naming_trial079_tree.wav,1,a,naming,79,tree,743,correct,NA,Mar  6 2023 06:19:05,Agnieszka,1
62a1e,62a1e_session1_lista_naming_trial080_train.wav,1,a,naming,80,train,848,correct,NA,Mar  6 2023 06:19:14,Agnieszka,1
62a1e,62a1e_session1_lista_naming_trial081_wall.wav,1,a,naming,81,wall,820,correct,NA,Mar  6 2023 06:19:22,Agnieszka,1
62a1e,62a1e_session1_lista_naming_trial082_puppet.wav,1,a,naming,82,puppet,788,correct,NA,Mar  6 2023 06:19:32,Agnieszka,1
62a1e,62a1e_session1_lista_naming_trial083_magnet.wav,1,a,naming,83,magnet,973,correct,NA,Mar  6 2023 06:19:43,Agnieszka,1
62a1e,62a1e_session1_lista_naming_trial084_castle.wav,1,a,naming,84,castle,782,correct,NA,Mar  6 2023 06:19:59,Agnieszka,1
62a1e,62a1e_session1_lista_naming_trial085_circle.wav,1,a,naming,85,circle,721,correct,NA,Mar  6 2023 06:20:07,Agnieszka,1
62a1e,62a1e_session1_lista_naming_trial086_kitchen.wav,1,a,naming,86,kitchen,848,correct,NA,Mar  6 2023 06:20:20,Agnieszka,1
62a1e,62a1e_session1_lista_naming_trial087_elbow.wav,1,a,naming,87,elbow,915,correct,NA,Mar  6 2023 06:20:36,Agnieszka,1
62a1e,62a1e_session1_lista_naming_trial088_doughnut.wav,1,a,naming,88,doughnut,769,correct,NA,Mar  6 2023 06:20:47,Agnieszka,1
62a1e,62a1e_session1_lista_naming_trial089_goat.wav,1,a,naming,89,goat,852,correct,NA,Mar  6 2023 06:20:59,Agnieszka,1
62a1e,62a1e_session1_lista_naming_trial090_beak.wav,1,a,naming,90,beak,938,correct,NA,Mar  6 2023 06:21:19,Agnieszka,1
62a1e,62a1e_session1_lista_naming_trial091_cherry.wav,1,a,naming,91,cherry,708,correct,NA,Mar  6 2023 06:21:28,Agnieszka,1
62a1e,62a1e_session1_lista_naming_trial092_comb.wav,1,a,naming,92,comb,740,correct,NA,Mar  6 2023 06:21:42,Agnieszka,1
62a1e,62a1e_session1_lista_naming_trial093_suit.wav,1,a,naming,93,suit,1294,correct,NA,Mar  6 2023 06:21:51,Agnieszka,1
62a1e,62a1e_session1_lista_naming_trial094_shower.wav,1,a,naming,94,shower,1154,correct,NA,Mar  6 2023 06:21:58,Agnieszka,1
62a1e,62a1e_session1_lista_naming_trial095_bench.wav,1,a,naming,95,bench,1333,correct,NA,Mar  6 2023 06:22:07,Agnieszka,1
62a1e,62a1e_session1_lista_naming_trial096_bear.wav,1,a,naming,96,bear,1084,correct,NA,Mar  6 2023 06:22:17,Agnieszka,1
62a1e,62a1e_session1_lista_naming_trial097_wheelbarrow.wav,1,a,naming,97,wheelbarrow,858,correct,NA,Mar  6 2023 06:22:25,Agnieszka,1
62a1e,62a1e_session1_lista_naming_trial098_limo.wav,1,a,naming,98,limo,-1,wrong_word,NA,Mar  6 2023 06:22:31,Agnieszka,1
62a1e,62a1e_session1_lista_naming_trial099_fridge.wav,1,a,naming,99,fridge,1055,correct,NA,Mar  6 2023 06:22:38,Agnieszka,1
62a1e,62a1e_session1_lista_naming_trial100_flower.wav,1,a,naming,100,flower,934,correct,NA,Mar  6 2023 06:22:48,Agnieszka,1
62a1e,62a1e_session1_lista_naming_trial101_tomato.wav,1,a,naming,101,tomato,1014,correct,NA,Mar  6 2023 06:23:00,Agnieszka,1
62a1e,62a1e_session1_lista_naming_trial102_ruler.wav,1,a,naming,102,ruler,797,correct,NA,Mar  6 2023 06:23:07,Agnieszka,1
62a1e,62a1e_session1_lista_naming_trial103_rabbit.wav,1,a,naming,103,rabbit,947,correct,NA,Mar  6 2023 06:23:15,Agnieszka,1
62a1e,62a1e_session1_lista_naming_trial104_saw.wav,1,a,naming,104,saw,753,correct,NA,Mar  6 2023 06:23:23,Agnieszka,1
62a1e,62a1e_session1_lista_naming_trial105_skirt.wav,1,a,naming,105,skirt,1212,correct,NA,Mar  6 2023 06:23:31,Agnieszka,1
62a1e,62a1e_session1_lista_naming_trial106_tie.wav,1,a,naming,106,tie,1126,correct,NA,Mar  6 2023 06:23:42,Agnieszka,1
62a1e,62a1e_session1_lista_naming_trial107_bull.wav,1,a,naming,107,bull,1040,correct,NA,Mar  6 2023 06:23:51,Agnieszka,1
62a1e,62a1e_session1_lista_naming_trial108_snake.wav,1,a,naming,108,snake,915,correct,NA,Mar  6 2023 06:24:07,Agnieszka,1
62a1e,62a1e_session1_lista_naming_trial109_sword.wav,1,a,naming,109,sword,899,correct,NA,Mar  6 2023 06:24:26,Agnieszka,1
62a1e,62a1e_session1_lista_naming_trial110_pocket.wav,1,a,naming,110,pocket,1014,correct,NA,Mar  6 2023 06:24:48,Agnieszka,1
62a1e,62a1e_session1_lista_naming_trial111_book.wav,1,a,naming,111,book,899,correct,NA,Mar  6 2023 06:24:55,Agnieszka,1
62a1e,62a1e_session1_lista_naming_trial112_key.wav,1,a,naming,112,key,740,correct,NA,Mar  6 2023 06:25:03,Agnieszka,1
62a1e,62a1e_session1_lista_naming_trial113_bib.wav,1,a,naming,113,bib,864,correct,NA,Mar  6 2023 06:25:15,Agnieszka,1
62a1e,62a1e_session1_lista_naming_trial114_basket.wav,1,a,naming,114,basket,1014,correct,NA,Mar  6 2023 06:25:24,Agnieszka,1
62a1e,62a1e_session1_lista_naming_trial115_dress.wav,1,a,naming,115,dress,791,correct,NA,Mar  6 2023 06:25:34,Agnieszka,1
62a1e,62a1e_session1_lista_naming_trial116_robot.wav,1,a,naming,116,robot,976,correct,NA,Mar  6 2023 06:25:54,Agnieszka,1
62a1e,62a1e_session1_lista_naming_trial117_caterpillar.wav,1,a,naming,117,caterpillar,711,correct,NA,Mar  6 2023 06:26:07,Agnieszka,1
62a1e,62a1e_session1_lista_naming_trial118_jellyfish.wav,1,a,naming,118,jellyfish,756,correct,NA,Mar  6 2023 06:26:18,Agnieszka,1
62a1e,62a1e_session1_lista_naming_trial119_mouth.wav,1,a,naming,119,mouth,686,correct,NA,Mar  6 2023 06:26:31,Agnieszka,1
62a1e,62a1e_session1_lista_naming_trial120_scissors.wav,1,a,naming,120,scissors,715,correct,NA,Mar  6 2023 06:26:44,Agnieszka,1
62a1e,62a1e_session1_lista_naming_trial121_sweet.wav,1,a,naming,121,sweet,753,correct,NA,Mar  6 2023 06:26:59,Agnieszka,1
62a1e,62a1e_session1_lista_naming_trial122_judge.wav,1,a,naming,122,judge,2005,correct,NA,Mar  6 2023 06:27:12,Agnieszka,1
62a1e,62a1e_session1_lista_naming_trial123_tattoo.wav,1,a,naming,123,tattoo,1339,correct,NA,Mar  6 2023 06:27:27,Agnieszka,1
62a1e,62a1e_session1_lista_naming_trial124_clown.wav,1,a,naming,124,clown,785,correct,NA,Mar  6 2023 06:27:37,Agnieszka,1
62a1e,62a1e_session1_lista_naming_trial125_candle.wav,1,a,naming,125,candle,648,correct,NA,Mar  6 2023 06:27:49,Agnieszka,1
62a1e,62a1e_session1_lista_naming_trial126_suitcase.wav,1,a,naming,126,suitcase,766,correct,NA,Mar  6 2023 06:28:00,Agnieszka,1
62a1e,62a1e_session1_lista_naming_trial127_net.wav,1,a,naming,127,net,734,correct,NA,Mar  6 2023 06:28:10,Agnieszka,1
62a1e,62a1e_session1_lista_naming_trial128_hippo.wav,1,a,naming,128,hippo,1176,correct,NA,Mar  6 2023 06:28:18,Agnieszka,1
62a1e,62a1e_session1_lista_naming_trial129_pineapple.wav,1,a,naming,129,pineapple,782,correct,NA,Mar  6 2023 06:28:26,Agnieszka,1
62a1e,62a1e_session1_lista_naming_trial130_nest.wav,1,a,naming,130,nest,826,correct,NA,Mar  6 2023 06:28:35,Agnieszka,1
62a1e,62a1e_session1_lista_naming_trial131_owl.wav,1,a,naming,131,owl,1036,correct,NA,Mar  6 2023 06:28:46,Agnieszka,1
62a1e,62a1e_session1_lista_naming_trial132_lamp.wav,1,a,naming,132,lamp,896,correct,NA,Mar  6 2023 06:28:56,Agnieszka,1
62a1e,62a1e_session1_lista_naming_trial133_sausage.wav,1,a,naming,133,sausage,903,correct,NA,Mar  6 2023 06:29:05,Agnieszka,1
62a1e,62a1e_session1_lista_naming_trial134_orange.wav,1,a,naming,134,orange,903,correct,NA,Mar  6 2023 06:29:15,Agnieszka,1
62a1e,62a1e_session1_lista_naming_trial135_shoe.wav,1,a,naming,135,shoe,979,correct,NA,Mar  6 2023 06:29:26,Agnieszka,1
62a1e,62a1e_session1_lista_naming_trial136_flag.wav,1,a,naming,136,flag,680,correct,NA,Mar  6 2023 06:29:45,Agnieszka,1
62a1e,62a1e_session1_lista_naming_trial137_lung.wav,1,a,naming,137,lung,756,correct,NA,Mar  6 2023 06:29:58,Agnieszka,1
62a1e,62a1e_session1_lista_naming_trial138_kangaroo.wav,1,a,naming,138,kangaroo,899,correct,NA,Mar  6 2023 06:30:11,Agnieszka,1
62a1e,62a1e_session1_lista_naming_trial139_ear.wav,1,a,naming,139,ear,711,correct,NA,Mar  6 2023 06:30:26,Agnieszka,1
62a1e,62a1e_session1_lista_naming_trial140_curtain.wav,1,a,naming,140,curtain,772,correct,NA,Mar  6 2023 06:30:35,Agnieszka,1
62a1e,62a1e_session1_lista_naming_trial141_tunnel.wav,1,a,naming,141,tunnel,807,correct,NA,Mar  6 2023 06:30:45,Agnieszka,1
62a1e,62a1e_session1_lista_naming_trial142_tractor.wav,1,a,naming,142,tractor,775,correct,NA,Mar  6 2023 06:30:54,Agnieszka,1
62a1e,62a1e_session1_lista_naming_trial143_mountain.wav,1,a,naming,143,mountain,737,correct,NA,Mar  6 2023 06:31:03,Agnieszka,1
62a1e,62a1e_session1_lista_naming_trial144_plumber.wav,1,a,naming,144,plumber,871,correct,NA,Mar  6 2023 06:31:12,Agnieszka,1
62a1e,62a1e_session1_lista_naming_trial145_tray.wav,1,a,naming,145,tray,756,correct,NA,Mar  6 2023 06:31:26,Agnieszka,1
62a1e,62a1e_session1_lista_naming_trial146_donkey.wav,1,a,naming,146,donkey,791,correct,NA,Mar  6 2023 06:31:36,Agnieszka,1
62a1e,62a1e_session1_lista_naming_trial147_tap.wav,1,a,naming,147,tap,762,correct,NA,Mar  6 2023 06:31:44,Agnieszka,1
62a1e,62a1e_session1_lista_naming_trial148_windmill.wav,1,a,naming,148,windmill,807,correct,NA,Mar  6 2023 06:31:55,Agnieszka,1
62a1e,62a1e_session1_lista_naming_trial149_peg.wav,1,a,naming,149,peg,1527,correct,NA,Mar  6 2023 06:32:06,Agnieszka,1
62a1e,62a1e_session1_lista_naming_trial150_pepper.wav,1,a,naming,150,pepper,1157,correct,NA,Mar  6 2023 06:32:16,Agnieszka,1
