Participant_ID,File_Name,Session,List,Type_Trial,Trial_Nbr,Target,RT,Response_Trial,Comment,Date_Correction,Assessor_Name,Processed
5fdbb,5fdbb_session2_lista_naming_trial001_butterfly.wav,2,a,naming,1,butterfly,875,correct,NA,Jan 19 2023 11:15:14,Agnieszka,1
5fdbb,5fdbb_session2_lista_naming_trial002_thumb.wav,2,a,naming,2,thumb,794,correct,NA,Jan 19 2023 11:15:22,Agnieszka,1
5fdbb,5fdbb_session2_lista_naming_trial003_cork.wav,2,a,naming,3,cork,926,correct,NA,Jan 19 2023 11:15:30,Agnieszka,1
5fdbb,5fdbb_session2_lista_naming_trial004_coat.wav,2,a,naming,4,coat,837,correct,NA,Jan 19 2023 11:15:39,Agnieszka,1
5fdbb,5fdbb_session2_lista_naming_trial005_book.wav,2,a,naming,5,book,822,correct,NA,Jan 19 2023 11:15:47,Agnieszka,1
5fdbb,5fdbb_session2_lista_naming_trial006_lung.wav,2,a,naming,6,lung,1018,correct,NA,Jan 19 2023 11:15:54,Agnieszka,1
5fdbb,5fdbb_session2_lista_naming_trial007_kitchen.wav,2,a,naming,7,kitchen,851,correct,NA,Jan 19 2023 11:16:06,Agnieszka,1
5fdbb,5fdbb_session2_lista_naming_trial008_donkey.wav,2,a,naming,8,donkey,772,correct,NA,Jan 19 2023 11:16:15,Agnieszka,1
5fdbb,5fdbb_session2_lista_naming_trial009_fridge.wav,2,a,naming,9,fridge,1101,correct,NA,Jan 19 2023 11:16:22,Agnieszka,1
5fdbb,5fdbb_session2_lista_naming_trial010_tie.wav,2,a,naming,10,tie,721,correct,NA,Jan 19 2023 11:16:30,Agnieszka,1
5fdbb,5fdbb_session2_lista_naming_trial011_dummy.wav,2,a,naming,11,dummy,873,correct,NA,Jan 19 2023 11:17:13,Agnieszka,1
5fdbb,5fdbb_session2_lista_naming_trial012_bear.wav,2,a,naming,12,bear,901,correct,NA,Jan 19 2023 11:17:20,Agnieszka,1
5fdbb,5fdbb_session2_lista_naming_trial013_pineapple.wav,2,a,naming,13,pineapple,748,correct,NA,Jan 19 2023 11:17:27,Agnieszka,1
5fdbb,5fdbb_session2_lista_naming_trial014_kangaroo.wav,2,a,naming,14,kangaroo,844,correct,NA,Jan 19 2023 11:17:34,Agnieszka,1
5fdbb,5fdbb_session2_lista_naming_trial015_pepper.wav,2,a,naming,15,pepper,1087,correct,NA,Jan 19 2023 11:17:41,Agnieszka,1
5fdbb,5fdbb_session2_lista_naming_trial016_apple.wav,2,a,naming,16,apple,778,correct,NA,Jan 19 2023 11:17:56,Agnieszka,1
5fdbb,5fdbb_session2_lista_naming_trial017_tiger.wav,2,a,naming,17,tiger,819,correct,NA,Jan 19 2023 11:18:27,Agnieszka,1
5fdbb,5fdbb_session2_lista_naming_trial018_gym.wav,2,a,naming,18,gym,1078,correct,NA,Jan 19 2023 11:18:35,Agnieszka,1
5fdbb,5fdbb_session2_lista_naming_trial019_wave.wav,2,a,naming,19,wave,986,correct,NA,Jan 19 2023 11:18:42,Agnieszka,1
5fdbb,5fdbb_session2_lista_naming_trial020_tap.wav,2,a,naming,20,tap,942,correct,NA,Jan 19 2023 11:18:49,Agnieszka,1
5fdbb,5fdbb_session2_lista_naming_trial021_robot.wav,2,a,naming,21,robot,945,correct,NA,Jan 19 2023 11:18:59,Agnieszka,1
5fdbb,5fdbb_session2_lista_naming_trial022_limo.wav,2,a,naming,22,limo,1168,correct,NA,Jan 19 2023 11:19:06,Agnieszka,1
5fdbb,5fdbb_session2_lista_naming_trial023_puppet.wav,2,a,naming,23,puppet,1025,correct,NA,Jan 19 2023 11:19:14,Agnieszka,1
5fdbb,5fdbb_session2_lista_naming_trial024_net.wav,2,a,naming,24,net,894,correct,NA,Jan 19 2023 11:19:22,Agnieszka,1
5fdbb,5fdbb_session2_lista_naming_trial025_bullet.wav,2,a,naming,25,bullet,-1,wrong_word,NA,Jan 19 2023 11:19:29,Agnieszka,1
5fdbb,5fdbb_session2_lista_naming_trial026_curtain.wav,2,a,naming,26,curtain,873,correct,NA,Jan 19 2023 11:19:35,Agnieszka,1
5fdbb,5fdbb_session2_lista_naming_trial027_zip.wav,2,a,naming,27,zip,831,correct,NA,Jan 19 2023 11:19:46,Agnieszka,1
5fdbb,5fdbb_session2_lista_naming_trial028_mountain.wav,2,a,naming,28,mountain,1317,correct,NA,Jan 19 2023 11:19:55,Agnieszka,1
5fdbb,5fdbb_session2_lista_naming_trial029_goat.wav,2,a,naming,29,goat,1489,correct,NA,Jan 19 2023 11:20:02,Agnieszka,1
5fdbb,5fdbb_session2_lista_naming_trial030_comb.wav,2,a,naming,30,comb,816,correct,NA,Jan 19 2023 11:20:10,Agnieszka,1
5fdbb,5fdbb_session2_lista_naming_trial031_bib.wav,2,a,naming,31,bib,1053,correct,NA,Jan 19 2023 11:20:17,Agnieszka,1
5fdbb,5fdbb_session2_lista_naming_trial032_doughnut.wav,2,a,naming,32,doughnut,765,correct,NA,Jan 19 2023 11:20:30,Agnieszka,1
5fdbb,5fdbb_session2_lista_naming_trial033_jellyfish.wav,2,a,naming,33,jellyfish,1043,correct,NA,Jan 19 2023 11:20:39,Agnieszka,1
5fdbb,5fdbb_session2_lista_naming_trial034_rose.wav,2,a,naming,34,rose,901,correct,NA,Jan 19 2023 11:20:46,Agnieszka,1
5fdbb,5fdbb_session2_lista_naming_trial035_submarine.wav,2,a,naming,35,submarine,-1,wrong_word,NA,Jan 19 2023 11:20:52,Agnieszka,1
5fdbb,5fdbb_session2_lista_naming_trial036_bike.wav,2,a,naming,36,bike,885,correct,NA,Jan 19 2023 11:21:01,Agnieszka,1
5fdbb,5fdbb_session2_lista_naming_trial037_fence.wav,2,a,naming,37,fence,-1,wrong_word,NA,Jan 19 2023 11:21:09,Agnieszka,1
5fdbb,5fdbb_session2_lista_naming_trial038_snake.wav,2,a,naming,38,snake,853,correct,NA,Jan 19 2023 11:21:17,Agnieszka,1
5fdbb,5fdbb_session2_lista_naming_trial039_castle.wav,2,a,naming,39,castle,926,correct,NA,Jan 19 2023 11:21:27,Agnieszka,1
5fdbb,5fdbb_session2_lista_naming_trial040_tongue.wav,2,a,naming,40,tongue,1100,correct,NA,Jan 19 2023 11:21:38,Agnieszka,1
5fdbb,5fdbb_session2_lista_naming_trial041_triangle.wav,2,a,naming,41,triangle,878,correct,NA,Jan 19 2023 11:21:46,Agnieszka,1
5fdbb,5fdbb_session2_lista_naming_trial042_sun.wav,2,a,naming,42,sun,806,correct,NA,Jan 19 2023 11:21:53,Agnieszka,1
5fdbb,5fdbb_session2_lista_naming_trial043_suitcase.wav,2,a,naming,43,suitcase,875,correct,NA,Jan 19 2023 11:22:00,Agnieszka,1
5fdbb,5fdbb_session2_lista_naming_trial044_fairy.wav,2,a,naming,44,fairy,816,correct,NA,Jan 19 2023 11:22:08,Agnieszka,1
5fdbb,5fdbb_session2_lista_naming_trial045_bottle.wav,2,a,naming,45,bottle,882,correct,NA,Jan 19 2023 11:22:16,Agnieszka,1
5fdbb,5fdbb_session2_lista_naming_trial046_squirrel.wav,2,a,naming,46,squirrel,813,correct,NA,Jan 19 2023 11:22:23,Agnieszka,1
5fdbb,5fdbb_session2_lista_naming_trial047_whale.wav,2,a,naming,47,whale,999,correct,NA,Jan 19 2023 11:22:30,Agnieszka,1
5fdbb,5fdbb_session2_lista_naming_trial048_ruler.wav,2,a,naming,48,ruler,1024,correct,NA,Jan 19 2023 11:22:37,Agnieszka,1
5fdbb,5fdbb_session2_lista_naming_trial049_flag.wav,2,a,naming,49,flag,933,correct,NA,Jan 19 2023 11:23:03,Agnieszka,1
5fdbb,5fdbb_session2_lista_naming_trial050_suit.wav,2,a,naming,50,suit,778,correct,NA,Jan 19 2023 11:23:11,Agnieszka,1
5fdbb,5fdbb_session2_lista_naming_trial051_wheelbarrow.wav,2,a,naming,51,wheelbarrow,961,correct,NA,Jan 19 2023 11:23:19,Agnieszka,1
5fdbb,5fdbb_session2_lista_naming_trial052_lawnmower.wav,2,a,naming,52,lawnmower,990,correct,NA,Jan 19 2023 11:23:26,Agnieszka,1
5fdbb,5fdbb_session2_lista_naming_trial053_judge.wav,2,a,naming,53,judge,971,correct,NA,Jan 19 2023 11:23:33,Agnieszka,1
5fdbb,5fdbb_session2_lista_naming_trial054_train.wav,2,a,naming,54,train,1190,correct,NA,Jan 19 2023 11:23:40,Agnieszka,1
5fdbb,5fdbb_session2_lista_naming_trial055_rocket.wav,2,a,naming,55,rocket,1021,correct,NA,Jan 19 2023 11:23:47,Agnieszka,1
5fdbb,5fdbb_session2_lista_naming_trial056_hippo.wav,2,a,naming,56,hippo,974,correct,NA,Jan 19 2023 11:23:56,Agnieszka,1
5fdbb,5fdbb_session2_lista_naming_trial057_flipper.wav,2,a,naming,57,flipper,1106,correct,NA,Jan 19 2023 11:24:04,Agnieszka,1
5fdbb,5fdbb_session2_lista_naming_trial058_tractor.wav,2,a,naming,58,tractor,835,correct,NA,Jan 19 2023 11:24:11,Agnieszka,1
5fdbb,5fdbb_session2_lista_naming_trial059_sausage.wav,2,a,naming,59,sausage,765,correct,NA,Jan 19 2023 11:24:18,Agnieszka,1
5fdbb,5fdbb_session2_lista_naming_trial060_arrow.wav,2,a,naming,60,arrow,936,correct,NA,Jan 19 2023 11:24:25,Agnieszka,1
5fdbb,5fdbb_session2_lista_naming_trial061_helicopter.wav,2,a,naming,61,helicopter,806,correct,NA,Jan 19 2023 11:24:33,Agnieszka,1
5fdbb,5fdbb_session2_lista_naming_trial062_teacher.wav,2,a,naming,62,teacher,1198,correct,NA,Jan 19 2023 11:24:40,Agnieszka,1
5fdbb,5fdbb_session2_lista_naming_trial063_basket.wav,2,a,naming,63,basket,825,correct,NA,Jan 19 2023 11:24:50,Agnieszka,1
5fdbb,5fdbb_session2_lista_naming_trial064_tattoo.wav,2,a,naming,64,tattoo,1150,correct,NA,Jan 19 2023 11:24:57,Agnieszka,1
5fdbb,5fdbb_session2_lista_naming_trial065_rabbit.wav,2,a,naming,65,rabbit,1223,correct,NA,Jan 19 2023 11:25:04,Agnieszka,1
5fdbb,5fdbb_session2_lista_naming_trial066_glove.wav,2,a,naming,66,glove,885,correct,NA,Jan 19 2023 11:25:11,Agnieszka,1
5fdbb,5fdbb_session2_lista_naming_trial067_tambourine.wav,2,a,naming,67,tambourine,897,correct,NA,Jan 19 2023 11:25:18,Agnieszka,1
5fdbb,5fdbb_session2_lista_naming_trial068_potato.wav,2,a,naming,68,potato,857,correct,NA,Jan 19 2023 11:25:28,Agnieszka,1
5fdbb,5fdbb_session2_lista_naming_trial069_swan.wav,2,a,naming,69,swan,831,correct,NA,Jan 19 2023 11:25:34,Agnieszka,1
5fdbb,5fdbb_session2_lista_naming_trial070_battery.wav,2,a,naming,70,battery,929,correct,NA,Jan 19 2023 11:25:41,Agnieszka,1
5fdbb,5fdbb_session2_lista_naming_trial071_dice.wav,2,a,naming,71,dice,888,correct,NA,Jan 19 2023 11:25:49,Agnieszka,1
5fdbb,5fdbb_session2_lista_naming_trial072_scissors.wav,2,a,naming,72,scissors,751,correct,NA,Jan 19 2023 11:25:57,Agnieszka,1
5fdbb,5fdbb_session2_lista_naming_trial073_skirt.wav,2,a,naming,73,skirt,808,correct,NA,Jan 19 2023 11:26:06,Agnieszka,1
5fdbb,5fdbb_session2_lista_naming_trial074_caterpillar.wav,2,a,naming,74,caterpillar,819,correct,NA,Jan 19 2023 11:26:12,Agnieszka,1
5fdbb,5fdbb_session2_lista_naming_trial075_tunnel.wav,2,a,naming,75,tunnel,-1,wrong_word,NA,Jan 19 2023 11:26:20,Agnieszka,1
5fdbb,5fdbb_session2_lista_naming_trial076_crab.wav,2,a,naming,76,crab,1905,correct,NA,Jan 19 2023 11:26:26,Agnieszka,1
5fdbb,5fdbb_session2_lista_naming_trial077_lighter.wav,2,a,naming,77,lighter,1104,correct,NA,Jan 19 2023 11:26:35,Agnieszka,1
5fdbb,5fdbb_session2_lista_naming_trial078_tray.wav,2,a,naming,78,tray,983,correct,NA,Jan 19 2023 11:26:42,Agnieszka,1
5fdbb,5fdbb_session2_lista_naming_trial079_onion.wav,2,a,naming,79,onion,907,correct,NA,Jan 19 2023 11:26:49,Agnieszka,1
5fdbb,5fdbb_session2_lista_naming_trial080_heel.wav,2,a,naming,80,heel,-1,disfluency,NA,Jan 19 2023 11:26:57,Agnieszka,1
5fdbb,5fdbb_session2_lista_naming_trial081_ear.wav,2,a,naming,81,ear,926,correct,NA,Jan 19 2023 11:27:05,Agnieszka,1
5fdbb,5fdbb_session2_lista_naming_trial082_clown.wav,2,a,naming,82,clown,834,correct,NA,Jan 19 2023 11:27:13,Agnieszka,1
5fdbb,5fdbb_session2_lista_naming_trial083_sweet.wav,2,a,naming,83,sweet,914,correct,NA,Jan 19 2023 11:27:26,Agnieszka,1
5fdbb,5fdbb_session2_lista_naming_trial084_peg.wav,2,a,naming,84,peg,851,correct,NA,Jan 19 2023 11:27:34,Agnieszka,1
5fdbb,5fdbb_session2_lista_naming_trial085_kite.wav,2,a,naming,85,kite,1283,correct,NA,Jan 19 2023 11:27:43,Agnieszka,1
5fdbb,5fdbb_session2_lista_naming_trial086_fox.wav,2,a,naming,86,fox,1006,correct,NA,Jan 19 2023 11:27:52,Agnieszka,1
5fdbb,5fdbb_session2_lista_naming_trial087_rhino.wav,2,a,naming,87,rhino,904,correct,NA,Jan 19 2023 11:27:59,Agnieszka,1
5fdbb,5fdbb_session2_lista_naming_trial088_bell.wav,2,a,naming,88,bell,980,correct,NA,Jan 19 2023 11:28:06,Agnieszka,1
5fdbb,5fdbb_session2_lista_naming_trial089_cherry.wav,2,a,naming,89,cherry,1060,correct,NA,Jan 19 2023 11:28:13,Agnieszka,1
5fdbb,5fdbb_session2_lista_naming_trial090_lamp.wav,2,a,naming,90,lamp,1072,correct,NA,Jan 19 2023 11:28:20,Agnieszka,1
5fdbb,5fdbb_session2_lista_naming_trial091_shoe.wav,2,a,naming,91,shoe,815,correct,NA,Jan 19 2023 11:28:27,Agnieszka,1
5fdbb,5fdbb_session2_lista_naming_trial092_bus.wav,2,a,naming,92,bus,843,correct,NA,Jan 19 2023 11:28:34,Agnieszka,1
5fdbb,5fdbb_session2_lista_naming_trial093_plumber.wav,2,a,naming,93,plumber,1416,correct,NA,Jan 19 2023 11:28:43,Agnieszka,1
5fdbb,5fdbb_session2_lista_naming_trial094_compass.wav,2,a,naming,94,compass,1043,correct,NA,Jan 19 2023 11:28:54,Agnieszka,1
5fdbb,5fdbb_session2_lista_naming_trial095_mouth.wav,2,a,naming,95,mouth,971,correct,NA,Jan 19 2023 11:29:04,Agnieszka,1
5fdbb,5fdbb_session2_lista_naming_trial096_hat.wav,2,a,naming,96,hat,758,correct,NA,Jan 19 2023 11:29:11,Agnieszka,1
5fdbb,5fdbb_session2_lista_naming_trial097_saw.wav,2,a,naming,97,saw,911,correct,NA,Jan 19 2023 11:29:18,Agnieszka,1
5fdbb,5fdbb_session2_lista_naming_trial098_zebra.wav,2,a,naming,98,zebra,866,correct,NA,Jan 19 2023 11:29:26,Agnieszka,1
5fdbb,5fdbb_session2_lista_naming_trial099_carrot.wav,2,a,naming,99,carrot,815,correct,NA,Jan 19 2023 11:29:34,Agnieszka,1
5fdbb,5fdbb_session2_lista_naming_trial100_orange.wav,2,a,naming,100,orange,2016,correct,NA,Jan 19 2023 11:29:45,Agnieszka,1
5fdbb,5fdbb_session2_lista_naming_trial101_doctor.wav,2,a,naming,101,doctor,1460,correct,NA,Jan 19 2023 11:29:53,Agnieszka,1
5fdbb,5fdbb_session2_lista_naming_trial102_nest.wav,2,a,naming,102,nest,1346,correct,NA,Jan 19 2023 11:30:01,Agnieszka,1
5fdbb,5fdbb_session2_lista_naming_trial103_bench.wav,2,a,naming,103,bench,1015,correct,NA,Jan 19 2023 11:30:09,Agnieszka,1
5fdbb,5fdbb_session2_lista_naming_trial104_drawer.wav,2,a,naming,104,drawer,993,correct,NA,Jan 19 2023 11:30:18,Agnieszka,1
5fdbb,5fdbb_session2_lista_naming_trial105_soap.wav,2,a,naming,105,soap,904,correct,NA,Jan 19 2023 11:30:25,Agnieszka,1
5fdbb,5fdbb_session2_lista_naming_trial106_lighthouse.wav,2,a,naming,106,lighthouse,952,correct,NA,Jan 19 2023 11:30:33,Agnieszka,1
5fdbb,5fdbb_session2_lista_naming_trial107_beak.wav,2,a,naming,107,beak,961,correct,NA,Jan 19 2023 11:30:41,Agnieszka,1
5fdbb,5fdbb_session2_lista_naming_trial108_sword.wav,2,a,naming,108,sword,863,correct,NA,Jan 19 2023 11:30:48,Agnieszka,1
5fdbb,5fdbb_session2_lista_naming_trial109_arm.wav,2,a,naming,109,arm,1018,correct,NA,Jan 19 2023 11:30:55,Agnieszka,1
5fdbb,5fdbb_session2_lista_naming_trial110_island.wav,2,a,naming,110,island,1921,correct,NA,Jan 19 2023 11:31:03,Agnieszka,1
5fdbb,5fdbb_session2_lista_naming_trial111_key.wav,2,a,naming,111,key,854,correct,NA,Jan 19 2023 11:31:11,Agnieszka,1
5fdbb,5fdbb_session2_lista_naming_trial112_butter.wav,2,a,naming,112,butter,967,correct,NA,Jan 19 2023 11:31:19,Agnieszka,1
5fdbb,5fdbb_session2_lista_naming_trial113_knife.wav,2,a,naming,113,knife,1169,correct,NA,Jan 19 2023 11:31:29,Agnieszka,1
5fdbb,5fdbb_session2_lista_naming_trial114_bracelet.wav,2,a,naming,114,bracelet,952,correct,NA,Jan 19 2023 11:31:36,Agnieszka,1
5fdbb,5fdbb_session2_lista_naming_trial115_camel.wav,2,a,naming,115,camel,929,correct,NA,Jan 19 2023 11:31:43,Agnieszka,1
5fdbb,5fdbb_session2_lista_naming_trial116_tomato.wav,2,a,naming,116,tomato,1040,correct,NA,Jan 19 2023 11:31:50,Agnieszka,1
5fdbb,5fdbb_session2_lista_naming_trial117_tree.wav,2,a,naming,117,tree,942,correct,NA,Jan 19 2023 11:31:56,Agnieszka,1
5fdbb,5fdbb_session2_lista_naming_trial118_windmill.wav,2,a,naming,118,windmill,948,correct,NA,Jan 19 2023 11:32:03,Agnieszka,1
5fdbb,5fdbb_session2_lista_naming_trial119_boxer.wav,2,a,naming,119,boxer,952,correct,NA,Jan 19 2023 11:32:11,Agnieszka,1
5fdbb,5fdbb_session2_lista_naming_trial120_fork.wav,2,a,naming,120,fork,876,correct,NA,Jan 19 2023 11:32:18,Agnieszka,1
5fdbb,5fdbb_session2_lista_naming_trial121_wing.wav,2,a,naming,121,wing,1059,correct,NA,Jan 19 2023 11:32:25,Agnieszka,1
5fdbb,5fdbb_session2_lista_naming_trial122_elbow.wav,2,a,naming,122,elbow,1082,correct,NA,Jan 19 2023 11:32:32,Agnieszka,1
5fdbb,5fdbb_session2_lista_naming_trial123_magnet.wav,2,a,naming,123,magnet,1182,correct,NA,Jan 19 2023 11:32:39,Agnieszka,1
5fdbb,5fdbb_session2_lista_naming_trial124_pencil.wav,2,a,naming,124,pencil,828,correct,NA,Jan 19 2023 11:32:46,Agnieszka,1
5fdbb,5fdbb_session2_lista_naming_trial125_bone.wav,2,a,naming,125,bone,821,correct,NA,Jan 19 2023 11:32:53,Agnieszka,1
5fdbb,5fdbb_session2_lista_naming_trial126_pear.wav,2,a,naming,126,pear,1136,correct,NA,Jan 19 2023 11:33:00,Agnieszka,1
5fdbb,5fdbb_session2_lista_naming_trial127_avocado.wav,2,a,naming,127,avocado,1053,correct,NA,Jan 19 2023 11:33:07,Agnieszka,1
5fdbb,5fdbb_session2_lista_naming_trial128_flower.wav,2,a,naming,128,flower,1018,correct,NA,Jan 19 2023 11:33:15,Agnieszka,1
5fdbb,5fdbb_session2_lista_naming_trial129_owl.wav,2,a,naming,129,owl,926,correct,NA,Jan 19 2023 11:33:22,Agnieszka,1
5fdbb,5fdbb_session2_lista_naming_trial130_shower.wav,2,a,naming,130,shower,1280,correct,NA,Jan 19 2023 11:33:29,Agnieszka,1
5fdbb,5fdbb_session2_lista_naming_trial131_candle.wav,2,a,naming,131,candle,983,correct,NA,Jan 19 2023 11:33:36,Agnieszka,1
5fdbb,5fdbb_session2_lista_naming_trial132_kiwi.wav,2,a,naming,132,kiwi,942,correct,NA,Jan 19 2023 11:33:43,Agnieszka,1
5fdbb,5fdbb_session2_lista_naming_trial133_map.wav,2,a,naming,133,map,986,correct,NA,Jan 19 2023 11:33:53,Agnieszka,1
5fdbb,5fdbb_session2_lista_naming_trial134_computer.wav,2,a,naming,134,computer,853,correct,NA,Jan 19 2023 11:34:36,Agnieszka,1
5fdbb,5fdbb_session2_lista_naming_trial135_koala.wav,2,a,naming,135,koala,1149,correct,NA,Jan 19 2023 11:34:43,Agnieszka,1
5fdbb,5fdbb_session2_lista_naming_trial136_star.wav,2,a,naming,136,star,750,correct,NA,Jan 19 2023 11:34:55,Agnieszka,1
5fdbb,5fdbb_session2_lista_naming_trial137_shield.wav,2,a,naming,137,shield,882,correct,NA,Jan 19 2023 11:35:01,Agnieszka,1
5fdbb,5fdbb_session2_lista_naming_trial138_mermaid.wav,2,a,naming,138,mermaid,1269,correct,NA,Jan 19 2023 11:35:08,Agnieszka,1
5fdbb,5fdbb_session2_lista_naming_trial139_dress.wav,2,a,naming,139,dress,1034,correct,NA,Jan 19 2023 11:35:16,Agnieszka,1
5fdbb,5fdbb_session2_lista_naming_trial140_drum.wav,2,a,naming,140,drum,860,correct,NA,Jan 19 2023 11:35:23,Agnieszka,1
5fdbb,5fdbb_session2_lista_naming_trial141_wall.wav,2,a,naming,141,wall,1087,correct,NA,Jan 19 2023 11:35:32,Agnieszka,1
5fdbb,5fdbb_session2_lista_naming_trial142_bull.wav,2,a,naming,142,bull,1308,correct,NA,Jan 19 2023 11:35:39,Agnieszka,1
5fdbb,5fdbb_session2_lista_naming_trial143_medal.wav,2,a,naming,143,medal,939,correct,NA,Jan 19 2023 11:35:50,Agnieszka,1
5fdbb,5fdbb_session2_lista_naming_trial144_pocket.wav,2,a,naming,144,pocket,1062,correct,NA,Jan 19 2023 11:35:56,Agnieszka,1
5fdbb,5fdbb_session2_lista_naming_trial145_circle.wav,2,a,naming,145,circle,1587,correct,NA,Jan 19 2023 11:36:04,Agnieszka,1
5fdbb,5fdbb_session2_lista_naming_trial146_fireplace.wav,2,a,naming,146,fireplace,-1,wrong_word,NA,Jan 19 2023 11:36:10,Agnieszka,1
5fdbb,5fdbb_session2_lista_naming_trial147_pipe.wav,2,a,naming,147,pipe,1075,correct,NA,Jan 19 2023 11:36:19,Agnieszka,1
5fdbb,5fdbb_session2_lista_naming_trial148_queen.wav,2,a,naming,148,queen,939,correct,NA,Jan 19 2023 11:36:27,Agnieszka,1
5fdbb,5fdbb_session2_lista_naming_trial149_ghost.wav,2,a,naming,149,ghost,882,correct,NA,Jan 19 2023 11:36:34,Agnieszka,1
5fdbb,5fdbb_session2_lista_naming_trial150_olive.wav,2,a,naming,150,olive,1239,correct,NA,Jan 19 2023 11:36:42,Agnieszka,1
