Participant_ID,File_Name,Session,List,Type_Trial,Trial_Nbr,Target,RT,Response_Trial,Comment,Date_Correction,Assessor_Name,Processed
613dd,613dd_session2_lista_naming_trial001_train.wav,2,a,naming,1,train,2304,correct,NA,Jan 26 2023 13:05:38,Agnieszka,1
613dd,613dd_session2_lista_naming_trial002_magnet.wav,2,a,naming,2,magnet,-1,wrong_word,NA,Jan 26 2023 13:05:51,Agnieszka,1
613dd,613dd_session2_lista_naming_trial003_shoe.wav,2,a,naming,3,shoe,1352,uncertain,"it's correct but first she says "wrong one", probably about the previous word",Jan 26 2023 13:06:25,Agnieszka,1
613dd,613dd_session2_lista_naming_trial004_shield.wav,2,a,naming,4,shield,1966,correct,NA,Jan 26 2023 13:06:37,Agnieszka,1
613dd,613dd_session2_lista_naming_trial005_island.wav,2,a,naming,5,island,1566,correct,NA,Jan 26 2023 13:06:45,Agnieszka,1
613dd,613dd_session2_lista_naming_trial006_hat.wav,2,a,naming,6,hat,1266,correct,NA,Jan 26 2023 13:07:02,Agnieszka,1
613dd,613dd_session2_lista_naming_trial007_wave.wav,2,a,naming,7,wave,1275,correct,NA,Jan 26 2023 13:07:13,Agnieszka,1
613dd,613dd_session2_lista_naming_trial008_fork.wav,2,a,naming,8,fork,1094,correct,NA,Jan 26 2023 13:07:19,Agnieszka,1
613dd,613dd_session2_lista_naming_trial009_tie.wav,2,a,naming,9,tie,1562,correct,NA,Jan 26 2023 13:07:26,Agnieszka,1
613dd,613dd_session2_lista_naming_trial010_queen.wav,2,a,naming,10,queen,1438,correct,NA,Jan 26 2023 13:07:35,Agnieszka,1
613dd,613dd_session2_lista_naming_trial011_plumber.wav,2,a,naming,11,plumber,-1,wrong_word,NA,Jan 26 2023 13:07:42,Agnieszka,1
613dd,613dd_session2_lista_naming_trial012_goat.wav,2,a,naming,12,goat,1469,correct,NA,Jan 26 2023 13:07:49,Agnieszka,1
613dd,613dd_session2_lista_naming_trial013_saw.wav,2,a,naming,13,saw,1438,correct,NA,Jan 26 2023 13:08:00,Agnieszka,1
613dd,613dd_session2_lista_naming_trial014_kangaroo.wav,2,a,naming,14,kangaroo,1657,correct,NA,Jan 26 2023 13:08:14,Agnieszka,1
613dd,613dd_session2_lista_naming_trial015_owl.wav,2,a,naming,15,owl,1422,correct,NA,Jan 26 2023 13:08:21,Agnieszka,1
613dd,613dd_session2_lista_naming_trial016_tambourine.wav,2,a,naming,16,tambourine,1597,correct,NA,Jan 26 2023 13:08:30,Agnieszka,1
613dd,613dd_session2_lista_naming_trial017_arrow.wav,2,a,naming,17,arrow,1288,correct,NA,Jan 26 2023 13:08:37,Agnieszka,1
613dd,613dd_session2_lista_naming_trial018_carrot.wav,2,a,naming,18,carrot,1059,correct,NA,Jan 26 2023 13:08:44,Agnieszka,1
613dd,613dd_session2_lista_naming_trial019_bullet.wav,2,a,naming,19,bullet,1272,correct,NA,Jan 26 2023 13:08:51,Agnieszka,1
613dd,613dd_session2_lista_naming_trial020_elbow.wav,2,a,naming,20,elbow,1667,correct,NA,Jan 26 2023 13:08:58,Agnieszka,1
613dd,613dd_session2_lista_naming_trial021_puppet.wav,2,a,naming,21,puppet,1562,correct,NA,Jan 26 2023 13:09:04,Agnieszka,1
613dd,613dd_session2_lista_naming_trial022_helicopter.wav,2,a,naming,22,helicopter,1116,correct,NA,Jan 26 2023 13:09:11,Agnieszka,1
613dd,613dd_session2_lista_naming_trial023_sword.wav,2,a,naming,23,sword,1441,correct,NA,Jan 26 2023 13:09:18,Agnieszka,1
613dd,613dd_session2_lista_naming_trial024_bracelet.wav,2,a,naming,24,bracelet,1259,correct,NA,Jan 26 2023 13:09:25,Agnieszka,1
613dd,613dd_session2_lista_naming_trial025_mermaid.wav,2,a,naming,25,mermaid,1345,correct,NA,Jan 26 2023 13:09:32,Agnieszka,1
613dd,613dd_session2_lista_naming_trial026_net.wav,2,a,naming,26,net,1616,correct,NA,Jan 26 2023 13:09:38,Agnieszka,1
613dd,613dd_session2_lista_naming_trial027_bus.wav,2,a,naming,27,bus,1778,correct,NA,Jan 26 2023 13:09:44,Agnieszka,1
613dd,613dd_session2_lista_naming_trial028_battery.wav,2,a,naming,28,battery,1339,correct,NA,Jan 26 2023 13:09:50,Agnieszka,1
613dd,613dd_session2_lista_naming_trial029_limo.wav,2,a,naming,29,limo,1721,correct,NA,Jan 26 2023 13:09:59,Agnieszka,1
613dd,613dd_session2_lista_naming_trial030_pocket.wav,2,a,naming,30,pocket,1135,correct,NA,Jan 26 2023 13:10:07,Agnieszka,1
613dd,613dd_session2_lista_naming_trial031_medal.wav,2,a,naming,31,medal,1505,correct,NA,Jan 26 2023 13:10:15,Agnieszka,1
613dd,613dd_session2_lista_naming_trial032_tree.wav,2,a,naming,32,tree,1348,correct,NA,Jan 26 2023 13:10:24,Agnieszka,1
613dd,613dd_session2_lista_naming_trial033_doctor.wav,2,a,naming,33,doctor,-1,no_resp,NA,Jan 26 2023 13:10:31,Agnieszka,1
613dd,613dd_session2_lista_naming_trial034_pineapple.wav,2,a,naming,34,pineapple,1785,correct,NA,Jan 26 2023 13:10:38,Agnieszka,1
613dd,613dd_session2_lista_naming_trial035_tiger.wav,2,a,naming,35,tiger,1090,correct,NA,Jan 26 2023 13:10:45,Agnieszka,1
613dd,613dd_session2_lista_naming_trial036_fridge.wav,2,a,naming,36,fridge,1240,correct,NA,Jan 26 2023 13:10:56,Agnieszka,1
613dd,613dd_session2_lista_naming_trial037_curtain.wav,2,a,naming,37,curtain,903,correct,NA,Jan 26 2023 13:11:04,Agnieszka,1
613dd,613dd_session2_lista_naming_trial038_kite.wav,2,a,naming,38,kite,1622,correct,NA,Jan 26 2023 13:11:11,Agnieszka,1
613dd,613dd_session2_lista_naming_trial039_candle.wav,2,a,naming,39,candle,1546,correct,NA,Jan 26 2023 13:11:40,Agnieszka,1
613dd,613dd_session2_lista_naming_trial040_tomato.wav,2,a,naming,40,tomato,1237,correct,NA,Jan 26 2023 13:12:20,Agnieszka,1
613dd,613dd_session2_lista_naming_trial041_tray.wav,2,a,naming,41,tray,1597,correct,NA,Jan 26 2023 13:12:31,Agnieszka,1
613dd,613dd_session2_lista_naming_trial042_lawnmower.wav,2,a,naming,42,lawnmower,2269,correct,NA,Jan 26 2023 13:12:38,Agnieszka,1
613dd,613dd_session2_lista_naming_trial043_snake.wav,2,a,naming,43,snake,1297,correct,NA,Jan 26 2023 13:12:45,Agnieszka,1
613dd,613dd_session2_lista_naming_trial044_lamp.wav,2,a,naming,44,lamp,1511,correct,NA,Jan 26 2023 13:12:51,Agnieszka,1
613dd,613dd_session2_lista_naming_trial045_tractor.wav,2,a,naming,45,tractor,1281,correct,NA,Jan 26 2023 13:13:05,Agnieszka,1
613dd,613dd_session2_lista_naming_trial046_cork.wav,2,a,naming,46,cork,1247,correct,NA,Jan 26 2023 13:13:13,Agnieszka,1
613dd,613dd_session2_lista_naming_trial047_butter.wav,2,a,naming,47,butter,1431,correct,NA,Jan 26 2023 13:13:20,Agnieszka,1
613dd,613dd_session2_lista_naming_trial048_zebra.wav,2,a,naming,48,zebra,1075,correct,NA,Jan 26 2023 13:13:27,Agnieszka,1
613dd,613dd_session2_lista_naming_trial049_swan.wav,2,a,naming,49,swan,1116,correct,NA,Jan 26 2023 13:13:38,Agnieszka,1
613dd,613dd_session2_lista_naming_trial050_flower.wav,2,a,naming,50,flower,1180,correct,NA,Jan 26 2023 13:13:45,Agnieszka,1
613dd,613dd_session2_lista_naming_trial051_peg.wav,2,a,naming,51,peg,1495,correct,NA,Jan 26 2023 13:13:53,Agnieszka,1
613dd,613dd_session2_lista_naming_trial052_thumb.wav,2,a,naming,52,thumb,1361,correct,NA,Jan 26 2023 13:14:00,Agnieszka,1
613dd,613dd_session2_lista_naming_trial053_compass.wav,2,a,naming,53,compass,2250,correct,NA,Jan 26 2023 13:14:13,Agnieszka,1
613dd,613dd_session2_lista_naming_trial054_bone.wav,2,a,naming,54,bone,1224,correct,NA,Jan 26 2023 13:14:25,Agnieszka,1
613dd,613dd_session2_lista_naming_trial055_pear.wav,2,a,naming,55,pear,1275,correct,NA,Jan 26 2023 13:14:34,Agnieszka,1
613dd,613dd_session2_lista_naming_trial056_rocket.wav,2,a,naming,56,rocket,2059,correct,NA,Jan 26 2023 13:14:42,Agnieszka,1
613dd,613dd_session2_lista_naming_trial057_crab.wav,2,a,naming,57,crab,1450,correct,NA,Jan 26 2023 13:14:49,Agnieszka,1
613dd,613dd_session2_lista_naming_trial058_cherry.wav,2,a,naming,58,cherry,1549,correct,NA,Jan 26 2023 13:15:42,Agnieszka,1
613dd,613dd_session2_lista_naming_trial059_drawer.wav,2,a,naming,59,drawer,-1,wrong_word,NA,Jan 26 2023 13:16:02,Agnieszka,1
613dd,613dd_session2_lista_naming_trial060_computer.wav,2,a,naming,60,computer,1979,correct,NA,Jan 26 2023 13:16:53,Agnieszka,1
613dd,613dd_session2_lista_naming_trial061_kiwi.wav,2,a,naming,61,kiwi,1393,correct,NA,Jan 26 2023 13:17:07,Agnieszka,1
613dd,613dd_session2_lista_naming_trial062_lung.wav,2,a,naming,62,lung,1463,correct,NA,Jan 26 2023 13:17:33,Agnieszka,1
613dd,613dd_session2_lista_naming_trial063_bottle.wav,2,a,naming,63,bottle,1712,correct,NA,Jan 26 2023 13:18:11,Agnieszka,1
613dd,613dd_session2_lista_naming_trial064_comb.wav,2,a,naming,64,comb,1680,correct,NA,Jan 26 2023 13:18:20,Agnieszka,1
613dd,613dd_session2_lista_naming_trial065_windmill.wav,2,a,naming,65,windmill,1084,correct,NA,Jan 26 2023 13:18:27,Agnieszka,1
613dd,613dd_session2_lista_naming_trial066_castle.wav,2,a,naming,66,castle,1374,correct,NA,Jan 26 2023 13:18:34,Agnieszka,1
613dd,613dd_session2_lista_naming_trial067_sun.wav,2,a,naming,67,sun,1199,correct,NA,Jan 26 2023 13:18:43,Agnieszka,1
613dd,613dd_session2_lista_naming_trial068_fairy.wav,2,a,naming,68,fairy,1479,correct,NA,Jan 26 2023 13:18:55,Agnieszka,1
613dd,613dd_session2_lista_naming_trial069_clown.wav,2,a,naming,69,clown,1664,correct,NA,Jan 26 2023 13:19:02,Agnieszka,1
613dd,613dd_session2_lista_naming_trial070_basket.wav,2,a,naming,70,basket,1342,correct,NA,Jan 26 2023 13:19:10,Agnieszka,1
613dd,613dd_session2_lista_naming_trial071_fireplace.wav,2,a,naming,71,fireplace,1581,correct,NA,Jan 26 2023 13:19:17,Agnieszka,1
613dd,613dd_session2_lista_naming_trial072_squirrel.wav,2,a,naming,72,squirrel,1266,correct,NA,Jan 26 2023 13:19:28,Agnieszka,1
613dd,613dd_session2_lista_naming_trial073_apple.wav,2,a,naming,73,apple,1922,correct,NA,Jan 26 2023 13:19:35,Agnieszka,1
613dd,613dd_session2_lista_naming_trial074_bib.wav,2,a,naming,74,bib,1323,correct,NA,Jan 26 2023 13:19:45,Agnieszka,1
613dd,613dd_session2_lista_naming_trial075_doughnut.wav,2,a,naming,75,doughnut,1090,correct,NA,Jan 26 2023 13:19:52,Agnieszka,1
613dd,613dd_session2_lista_naming_trial076_submarine.wav,2,a,naming,76,submarine,2693,uncertain,correct but cut off,Jan 26 2023 13:20:09,Agnieszka,1
613dd,613dd_session2_lista_naming_trial077_avocado.wav,2,a,naming,77,avocado,1998,correct,NA,Jan 26 2023 13:20:18,Agnieszka,1
613dd,613dd_session2_lista_naming_trial078_ghost.wav,2,a,naming,78,ghost,1348,correct,NA,Jan 26 2023 13:20:25,Agnieszka,1
613dd,613dd_session2_lista_naming_trial079_skirt.wav,2,a,naming,79,skirt,1629,correct,NA,Jan 26 2023 13:20:33,Agnieszka,1
613dd,613dd_session2_lista_naming_trial080_dice.wav,2,a,naming,80,dice,1317,correct,NA,Jan 26 2023 13:20:45,Agnieszka,1
613dd,613dd_session2_lista_naming_trial081_koala.wav,2,a,naming,81,koala,1387,correct,NA,Jan 26 2023 13:20:56,Agnieszka,1
613dd,613dd_session2_lista_naming_trial082_lighter.wav,2,a,naming,82,lighter,1294,correct,NA,Jan 26 2023 13:21:13,Agnieszka,1
613dd,613dd_session2_lista_naming_trial083_drum.wav,2,a,naming,83,drum,1129,correct,NA,Jan 26 2023 13:21:25,Agnieszka,1
613dd,613dd_session2_lista_naming_trial084_wing.wav,2,a,naming,84,wing,1227,correct,NA,Jan 26 2023 13:21:32,Agnieszka,1
613dd,613dd_session2_lista_naming_trial085_mouth.wav,2,a,naming,85,mouth,1454,correct,NA,Jan 26 2023 13:21:39,Agnieszka,1
613dd,613dd_session2_lista_naming_trial086_wheelbarrow.wav,2,a,naming,86,wheelbarrow,1460,correct,NA,Jan 26 2023 13:21:45,Agnieszka,1
613dd,613dd_session2_lista_naming_trial087_glove.wav,2,a,naming,87,glove,1234,correct,NA,Jan 26 2023 13:22:02,Agnieszka,1
613dd,613dd_session2_lista_naming_trial088_nest.wav,2,a,naming,88,nest,1957,correct,NA,Jan 26 2023 13:22:11,Agnieszka,1
613dd,613dd_session2_lista_naming_trial089_fence.wav,2,a,naming,89,fence,1342,correct,NA,Jan 26 2023 13:22:22,Agnieszka,1
613dd,613dd_session2_lista_naming_trial090_lighthouse.wav,2,a,naming,90,lighthouse,1890,correct,NA,Jan 26 2023 13:22:28,Agnieszka,1
613dd,613dd_session2_lista_naming_trial091_rhino.wav,2,a,naming,91,rhino,1291,correct,NA,Jan 26 2023 13:22:37,Agnieszka,1
613dd,613dd_session2_lista_naming_trial092_suit.wav,2,a,naming,92,suit,1202,correct,NA,Jan 26 2023 13:22:46,Agnieszka,1
613dd,613dd_session2_lista_naming_trial093_heel.wav,2,a,naming,93,heel,1587,correct,NA,Jan 26 2023 13:22:53,Agnieszka,1
613dd,613dd_session2_lista_naming_trial094_onion.wav,2,a,naming,94,onion,2008,correct,NA,Jan 26 2023 13:22:59,Agnieszka,1
613dd,613dd_session2_lista_naming_trial095_tongue.wav,2,a,naming,95,tongue,1820,correct,NA,Jan 26 2023 13:23:07,Agnieszka,1
613dd,613dd_session2_lista_naming_trial096_potato.wav,2,a,naming,96,potato,1820,correct,NA,Jan 26 2023 13:23:15,Agnieszka,1
613dd,613dd_session2_lista_naming_trial097_wall.wav,2,a,naming,97,wall,2377,correct,NA,Jan 26 2023 13:23:21,Agnieszka,1
613dd,613dd_session2_lista_naming_trial098_knife.wav,2,a,naming,98,knife,1501,correct,NA,Jan 26 2023 13:23:30,Agnieszka,1
613dd,613dd_session2_lista_naming_trial099_dummy.wav,2,a,naming,99,dummy,1501,correct,NA,Jan 26 2023 13:23:42,Agnieszka,1
613dd,613dd_session2_lista_naming_trial100_boxer.wav,2,a,naming,100,boxer,1301,correct,NA,Jan 26 2023 13:23:50,Agnieszka,1
613dd,613dd_session2_lista_naming_trial101_fox.wav,2,a,naming,101,fox,1629,correct,NA,Jan 26 2023 13:23:56,Agnieszka,1
613dd,613dd_session2_lista_naming_trial102_pepper.wav,2,a,naming,102,pepper,1520,correct,NA,Jan 26 2023 13:24:03,Agnieszka,1
613dd,613dd_session2_lista_naming_trial103_robot.wav,2,a,naming,103,robot,1310,correct,NA,Jan 26 2023 13:24:10,Agnieszka,1
613dd,613dd_session2_lista_naming_trial104_rose.wav,2,a,naming,104,rose,1887,correct,NA,Jan 26 2023 13:24:15,Agnieszka,1
613dd,613dd_session2_lista_naming_trial105_camel.wav,2,a,naming,105,camel,1466,correct,NA,Jan 26 2023 13:24:22,Agnieszka,1
613dd,613dd_session2_lista_naming_trial106_ear.wav,2,a,naming,106,ear,1243,correct,NA,Jan 26 2023 13:24:30,Agnieszka,1
613dd,613dd_session2_lista_naming_trial107_key.wav,2,a,naming,107,key,1342,correct,NA,Jan 26 2023 13:24:36,Agnieszka,1
613dd,613dd_session2_lista_naming_trial108_jellyfish.wav,2,a,naming,108,jellyfish,2291,correct,NA,Jan 26 2023 13:24:42,Agnieszka,1
613dd,613dd_session2_lista_naming_trial109_teacher.wav,2,a,naming,109,teacher,2218,correct,NA,Jan 26 2023 13:24:49,Agnieszka,1
613dd,613dd_session2_lista_naming_trial110_hippo.wav,2,a,naming,110,hippo,-1,wrong_word,NA,Jan 26 2023 13:25:00,Agnieszka,1
613dd,613dd_session2_lista_naming_trial111_bear.wav,2,a,naming,111,bear,1973,correct,NA,Jan 26 2023 13:25:11,Agnieszka,1
613dd,613dd_session2_lista_naming_trial112_olive.wav,2,a,naming,112,olive,-1,no_resp,NA,Jan 26 2023 13:25:17,Agnieszka,1
613dd,613dd_session2_lista_naming_trial113_bike.wav,2,a,naming,113,bike,1103,correct,NA,Jan 26 2023 13:25:25,Agnieszka,1
613dd,613dd_session2_lista_naming_trial114_coat.wav,2,a,naming,114,coat,2272,correct,NA,Jan 26 2023 13:25:34,Agnieszka,1
613dd,613dd_session2_lista_naming_trial115_suitcase.wav,2,a,naming,115,suitcase,1157,correct,NA,Jan 26 2023 13:25:42,Agnieszka,1
613dd,613dd_session2_lista_naming_trial116_flipper.wav,2,a,naming,116,flipper,2215,correct,NA,Jan 26 2023 13:25:52,Agnieszka,1
613dd,613dd_session2_lista_naming_trial117_mountain.wav,2,a,naming,117,mountain,2511,correct,NA,Jan 26 2023 13:25:59,Agnieszka,1
613dd,613dd_session2_lista_naming_trial118_bull.wav,2,a,naming,118,bull,-1,no_resp,NA,Jan 26 2023 13:26:05,Agnieszka,1
613dd,613dd_session2_lista_naming_trial119_bell.wav,2,a,naming,119,bell,2887,uncertain,correct but cut off,Jan 26 2023 13:26:23,Agnieszka,1
613dd,613dd_session2_lista_naming_trial120_sausage.wav,2,a,naming,120,sausage,1333,correct,NA,Jan 26 2023 13:26:31,Agnieszka,1
613dd,613dd_session2_lista_naming_trial121_star.wav,2,a,naming,121,star,1638,correct,NA,Jan 26 2023 13:26:41,Agnieszka,1
613dd,613dd_session2_lista_naming_trial122_donkey.wav,2,a,naming,122,donkey,-1,wrong_word,NA,Jan 26 2023 13:26:48,Agnieszka,1
613dd,613dd_session2_lista_naming_trial123_gym.wav,2,a,naming,123,gym,2568,uncertain,correct but starts with "donkey",Jan 26 2023 13:27:11,Agnieszka,1
613dd,613dd_session2_lista_naming_trial124_butterfly.wav,2,a,naming,124,butterfly,2377,correct,NA,Jan 26 2023 13:27:24,Agnieszka,1
613dd,613dd_session2_lista_naming_trial125_pipe.wav,2,a,naming,125,pipe,1677,correct,NA,Jan 26 2023 13:27:31,Agnieszka,1
613dd,613dd_session2_lista_naming_trial126_book.wav,2,a,naming,126,book,1218,correct,NA,Jan 26 2023 13:27:38,Agnieszka,1
613dd,613dd_session2_lista_naming_trial127_whale.wav,2,a,naming,127,whale,1737,correct,NA,Jan 26 2023 13:27:46,Agnieszka,1
613dd,613dd_session2_lista_naming_trial128_zip.wav,2,a,naming,128,zip,1489,correct,NA,Jan 26 2023 13:27:57,Agnieszka,1
613dd,613dd_session2_lista_naming_trial129_sweet.wav,2,a,naming,129,sweet,1317,correct,NA,Jan 26 2023 13:28:07,Agnieszka,1
613dd,613dd_session2_lista_naming_trial130_tap.wav,2,a,naming,130,tap,1215,correct,NA,Jan 26 2023 13:28:13,Agnieszka,1
613dd,613dd_session2_lista_naming_trial131_ruler.wav,2,a,naming,131,ruler,1205,correct,NA,Jan 26 2023 13:28:20,Agnieszka,1
613dd,613dd_session2_lista_naming_trial132_dress.wav,2,a,naming,132,dress,1164,correct,NA,Jan 26 2023 13:28:29,Agnieszka,1
613dd,613dd_session2_lista_naming_trial133_rabbit.wav,2,a,naming,133,rabbit,1842,correct,NA,Jan 26 2023 13:28:36,Agnieszka,1
613dd,613dd_session2_lista_naming_trial134_tunnel.wav,2,a,naming,134,tunnel,1141,correct,NA,Jan 26 2023 13:28:43,Agnieszka,1
613dd,613dd_session2_lista_naming_trial135_map.wav,2,a,naming,135,map,1390,correct,NA,Jan 26 2023 13:28:49,Agnieszka,1
613dd,613dd_session2_lista_naming_trial136_shower.wav,2,a,naming,136,shower,1310,correct,NA,Jan 26 2023 13:28:56,Agnieszka,1
613dd,613dd_session2_lista_naming_trial137_kitchen.wav,2,a,naming,137,kitchen,1129,correct,NA,Jan 26 2023 13:29:02,Agnieszka,1
613dd,613dd_session2_lista_naming_trial138_arm.wav,2,a,naming,138,arm,1304,correct,NA,Jan 26 2023 13:29:09,Agnieszka,1
613dd,613dd_session2_lista_naming_trial139_caterpillar.wav,2,a,naming,139,caterpillar,1699,correct,NA,Jan 26 2023 13:29:18,Agnieszka,1
613dd,613dd_session2_lista_naming_trial140_flag.wav,2,a,naming,140,flag,1266,correct,NA,Jan 26 2023 13:29:24,Agnieszka,1
613dd,613dd_session2_lista_naming_trial141_pencil.wav,2,a,naming,141,pencil,1285,correct,NA,Jan 26 2023 13:29:32,Agnieszka,1
613dd,613dd_session2_lista_naming_trial142_tattoo.wav,2,a,naming,142,tattoo,1431,correct,NA,Jan 26 2023 13:29:39,Agnieszka,1
613dd,613dd_session2_lista_naming_trial143_orange.wav,2,a,naming,143,orange,1087,correct,NA,Jan 26 2023 13:29:46,Agnieszka,1
613dd,613dd_session2_lista_naming_trial144_soap.wav,2,a,naming,144,soap,1638,correct,NA,Jan 26 2023 13:29:52,Agnieszka,1
613dd,613dd_session2_lista_naming_trial145_circle.wav,2,a,naming,145,circle,1062,correct,NA,Jan 26 2023 13:29:59,Agnieszka,1
613dd,613dd_session2_lista_naming_trial146_scissors.wav,2,a,naming,146,scissors,1288,correct,NA,Jan 26 2023 13:30:09,Agnieszka,1
613dd,613dd_session2_lista_naming_trial147_beak.wav,2,a,naming,147,beak,1374,correct,NA,Jan 26 2023 13:30:15,Agnieszka,1
613dd,613dd_session2_lista_naming_trial148_bench.wav,2,a,naming,148,bench,1288,correct,NA,Jan 26 2023 13:30:23,Agnieszka,1
613dd,613dd_session2_lista_naming_trial149_judge.wav,2,a,naming,149,judge,2132,correct,NA,Jan 26 2023 13:30:29,Agnieszka,1
613dd,613dd_session2_lista_naming_trial150_triangle.wav,2,a,naming,150,triangle,1186,correct,NA,Jan 26 2023 13:30:45,Agnieszka,1
