Participant_ID,File_Name,Session,List,Type_Trial,Trial_Nbr,Target,RT,Response_Trial,Comment,Date_Correction,Assessor_Name,Processed
5d68c,5d68c_session2_lista_naming_trial001_butterfly.wav,2,a,naming,1,butterfly,781,correct,NA,Feb 13 2023 14:51:00,Agnieszka,1
5d68c,5d68c_session2_lista_naming_trial002_nest.wav,2,a,naming,2,nest,995,correct,NA,Feb 13 2023 14:51:08,Agnieszka,1
5d68c,5d68c_session2_lista_naming_trial003_tiger.wav,2,a,naming,3,tiger,788,correct,NA,Feb 13 2023 14:51:27,Agnieszka,1
5d68c,5d68c_session2_lista_naming_trial004_onion.wav,2,a,naming,4,onion,1087,correct,NA,Feb 13 2023 14:51:39,Agnieszka,1
5d68c,5d68c_session2_lista_naming_trial005_magnet.wav,2,a,naming,5,magnet,759,correct,NA,Feb 13 2023 14:51:49,Agnieszka,1
5d68c,5d68c_session2_lista_naming_trial006_bone.wav,2,a,naming,6,bone,756,correct,NA,Feb 13 2023 14:51:57,Agnieszka,1
5d68c,5d68c_session2_lista_naming_trial007_curtain.wav,2,a,naming,7,curtain,797,correct,NA,Feb 13 2023 14:52:05,Agnieszka,1
5d68c,5d68c_session2_lista_naming_trial008_shower.wav,2,a,naming,8,shower,820,correct,NA,Feb 13 2023 14:52:19,Agnieszka,1
5d68c,5d68c_session2_lista_naming_trial009_goat.wav,2,a,naming,9,goat,845,correct,NA,Feb 13 2023 14:52:28,Agnieszka,1
5d68c,5d68c_session2_lista_naming_trial010_glove.wav,2,a,naming,10,glove,-1,wrong_word,NA,Feb 13 2023 14:52:36,Agnieszka,1
5d68c,5d68c_session2_lista_naming_trial011_castle.wav,2,a,naming,11,castle,874,correct,NA,Feb 13 2023 14:56:21,Agnieszka,1
5d68c,5d68c_session2_lista_naming_trial012_clown.wav,2,a,naming,12,clown,938,correct,NA,Feb 13 2023 14:56:28,Agnieszka,1
5d68c,5d68c_session2_lista_naming_trial013_puppet.wav,2,a,naming,13,puppet,817,correct,NA,Feb 13 2023 14:56:35,Agnieszka,1
5d68c,5d68c_session2_lista_naming_trial014_train.wav,2,a,naming,14,train,874,correct,NA,Feb 13 2023 14:56:45,Agnieszka,1
5d68c,5d68c_session2_lista_naming_trial015_ear.wav,2,a,naming,15,ear,894,correct,NA,Feb 13 2023 14:57:00,Agnieszka,1
5d68c,5d68c_session2_lista_naming_trial016_thumb.wav,2,a,naming,16,thumb,724,correct,NA,Feb 13 2023 14:57:09,Agnieszka,1
5d68c,5d68c_session2_lista_naming_trial017_butter.wav,2,a,naming,17,butter,861,correct,NA,Feb 13 2023 14:57:19,Agnieszka,1
5d68c,5d68c_session2_lista_naming_trial018_scissors.wav,2,a,naming,18,scissors,1259,correct,NA,Feb 13 2023 14:57:28,Agnieszka,1
5d68c,5d68c_session2_lista_naming_trial019_cork.wav,2,a,naming,19,cork,1046,correct,NA,Feb 13 2023 14:57:38,Agnieszka,1
5d68c,5d68c_session2_lista_naming_trial020_limo.wav,2,a,naming,20,limo,852,correct,NA,Feb 13 2023 14:57:48,Agnieszka,1
5d68c,5d68c_session2_lista_naming_trial021_tractor.wav,2,a,naming,21,tractor,743,correct,NA,Feb 13 2023 14:57:57,Agnieszka,1
5d68c,5d68c_session2_lista_naming_trial022_apple.wav,2,a,naming,22,apple,883,correct,NA,Feb 13 2023 14:58:06,Agnieszka,1
5d68c,5d68c_session2_lista_naming_trial023_carrot.wav,2,a,naming,23,carrot,791,correct,NA,Feb 13 2023 14:58:16,Agnieszka,1
5d68c,5d68c_session2_lista_naming_trial024_flipper.wav,2,a,naming,24,flipper,976,correct,NA,Feb 13 2023 14:58:30,Agnieszka,1
5d68c,5d68c_session2_lista_naming_trial025_rabbit.wav,2,a,naming,25,rabbit,801,correct,NA,Feb 13 2023 14:58:39,Agnieszka,1
5d68c,5d68c_session2_lista_naming_trial026_whale.wav,2,a,naming,26,whale,922,correct,NA,Feb 13 2023 14:58:47,Agnieszka,1
5d68c,5d68c_session2_lista_naming_trial027_bottle.wav,2,a,naming,27,bottle,957,correct,NA,Feb 13 2023 14:58:53,Agnieszka,1
5d68c,5d68c_session2_lista_naming_trial028_fairy.wav,2,a,naming,28,fairy,868,uncertain,not sure if there is a disfluency or not,Feb 13 2023 14:59:57,Agnieszka,1
5d68c,5d68c_session2_lista_naming_trial029_pipe.wav,2,a,naming,29,pipe,1285,correct,NA,Feb 13 2023 15:00:12,Agnieszka,1
5d68c,5d68c_session2_lista_naming_trial030_dummy.wav,2,a,naming,30,dummy,1186,correct,NA,Feb 13 2023 15:00:21,Agnieszka,1
5d68c,5d68c_session2_lista_naming_trial031_lighthouse.wav,2,a,naming,31,lighthouse,1196,correct,NA,Feb 13 2023 15:00:31,Agnieszka,1
5d68c,5d68c_session2_lista_naming_trial032_bib.wav,2,a,naming,32,bib,938,correct,NA,Feb 13 2023 15:00:57,Agnieszka,1
5d68c,5d68c_session2_lista_naming_trial033_saw.wav,2,a,naming,33,saw,751,correct,NA,Feb 13 2023 15:01:09,Agnieszka,1
5d68c,5d68c_session2_lista_naming_trial034_coat.wav,2,a,naming,34,coat,880,correct,NA,Feb 13 2023 15:01:18,Agnieszka,1
5d68c,5d68c_session2_lista_naming_trial035_fireplace.wav,2,a,naming,35,fireplace,1116,correct,NA,Feb 13 2023 15:01:36,Agnieszka,1
5d68c,5d68c_session2_lista_naming_trial036_jellyfish.wav,2,a,naming,36,jellyfish,903,correct,NA,Feb 13 2023 15:02:08,Agnieszka,1
5d68c,5d68c_session2_lista_naming_trial037_lamp.wav,2,a,naming,37,lamp,1106,correct,NA,Feb 13 2023 15:02:23,Agnieszka,1
5d68c,5d68c_session2_lista_naming_trial038_rhino.wav,2,a,naming,38,rhino,731,correct,NA,Feb 13 2023 15:02:31,Agnieszka,1
5d68c,5d68c_session2_lista_naming_trial039_pepper.wav,2,a,naming,39,pepper,1033,correct,NA,Feb 13 2023 15:02:38,Agnieszka,1
5d68c,5d68c_session2_lista_naming_trial040_wheelbarrow.wav,2,a,naming,40,wheelbarrow,915,correct,NA,Feb 13 2023 15:02:48,Agnieszka,1
5d68c,5d68c_session2_lista_naming_trial041_boxer.wav,2,a,naming,41,boxer,903,correct,NA,Feb 13 2023 15:02:58,Agnieszka,1
5d68c,5d68c_session2_lista_naming_trial042_snake.wav,2,a,naming,42,snake,778,correct,NA,Feb 13 2023 15:03:20,Agnieszka,1
5d68c,5d68c_session2_lista_naming_trial043_map.wav,2,a,naming,43,map,890,correct,NA,Feb 13 2023 15:03:29,Agnieszka,1
5d68c,5d68c_session2_lista_naming_trial044_wave.wav,2,a,naming,44,wave,1196,correct,NA,Feb 13 2023 15:03:37,Agnieszka,1
5d68c,5d68c_session2_lista_naming_trial045_basket.wav,2,a,naming,45,basket,750,correct,NA,Feb 13 2023 15:03:45,Agnieszka,1
5d68c,5d68c_session2_lista_naming_trial046_net.wav,2,a,naming,46,net,702,correct,NA,Feb 13 2023 15:03:53,Agnieszka,1
5d68c,5d68c_session2_lista_naming_trial047_key.wav,2,a,naming,47,key,906,correct,NA,Feb 13 2023 15:04:01,Agnieszka,1
5d68c,5d68c_session2_lista_naming_trial048_heel.wav,2,a,naming,48,heel,-1,wrong_word,NA,Feb 13 2023 15:04:07,Agnieszka,1
5d68c,5d68c_session2_lista_naming_trial049_swan.wav,2,a,naming,49,swan,1033,correct,NA,Feb 13 2023 15:04:16,Agnieszka,1
5d68c,5d68c_session2_lista_naming_trial050_kite.wav,2,a,naming,50,kite,1046,correct,NA,Feb 13 2023 15:04:25,Agnieszka,1
5d68c,5d68c_session2_lista_naming_trial051_judge.wav,2,a,naming,51,judge,820,correct,NA,Feb 13 2023 15:04:32,Agnieszka,1
5d68c,5d68c_session2_lista_naming_trial052_circle.wav,2,a,naming,52,circle,708,correct,NA,Feb 13 2023 15:04:40,Agnieszka,1
5d68c,5d68c_session2_lista_naming_trial053_doughnut.wav,2,a,naming,53,doughnut,1020,correct,NA,Feb 13 2023 15:04:48,Agnieszka,1
5d68c,5d68c_session2_lista_naming_trial054_helicopter.wav,2,a,naming,54,helicopter,791,correct,NA,Feb 13 2023 15:04:56,Agnieszka,1
5d68c,5d68c_session2_lista_naming_trial055_bracelet.wav,2,a,naming,55,bracelet,1399,correct,NA,Feb 13 2023 15:05:08,Agnieszka,1
5d68c,5d68c_session2_lista_naming_trial056_computer.wav,2,a,naming,56,computer,950,correct,NA,Feb 13 2023 15:05:24,Agnieszka,1
5d68c,5d68c_session2_lista_naming_trial057_tambourine.wav,2,a,naming,57,tambourine,848,correct,NA,Feb 13 2023 15:05:31,Agnieszka,1
5d68c,5d68c_session2_lista_naming_trial058_kiwi.wav,2,a,naming,58,kiwi,839,correct,NA,Feb 13 2023 15:05:42,Agnieszka,1
5d68c,5d68c_session2_lista_naming_trial059_tongue.wav,2,a,naming,59,tongue,-1,wrong_word,NA,Feb 13 2023 15:05:50,Agnieszka,1
5d68c,5d68c_session2_lista_naming_trial060_mountain.wav,2,a,naming,60,mountain,928,correct,NA,Feb 13 2023 15:05:59,Agnieszka,1
5d68c,5d68c_session2_lista_naming_trial061_bear.wav,2,a,naming,61,bear,864,correct,NA,Feb 13 2023 15:06:08,Agnieszka,1
5d68c,5d68c_session2_lista_naming_trial062_zebra.wav,2,a,naming,62,zebra,794,correct,NA,Feb 13 2023 15:06:19,Agnieszka,1
5d68c,5d68c_session2_lista_naming_trial063_windmill.wav,2,a,naming,63,windmill,858,correct,NA,Feb 13 2023 15:06:28,Agnieszka,1
5d68c,5d68c_session2_lista_naming_trial064_sun.wav,2,a,naming,64,sun,715,correct,NA,Feb 13 2023 15:06:35,Agnieszka,1
5d68c,5d68c_session2_lista_naming_trial065_fox.wav,2,a,naming,65,fox,858,correct,NA,Feb 13 2023 15:06:46,Agnieszka,1
5d68c,5d68c_session2_lista_naming_trial066_dice.wav,2,a,naming,66,dice,756,correct,NA,Feb 13 2023 15:06:54,Agnieszka,1
5d68c,5d68c_session2_lista_naming_trial067_bench.wav,2,a,naming,67,bench,914,correct,NA,Feb 13 2023 15:07:06,Agnieszka,1
5d68c,5d68c_session2_lista_naming_trial068_drum.wav,2,a,naming,68,drum,1231,correct,NA,Feb 13 2023 15:07:18,Agnieszka,1
5d68c,5d68c_session2_lista_naming_trial069_arrow.wav,2,a,naming,69,arrow,896,correct,NA,Feb 13 2023 15:07:25,Agnieszka,1
5d68c,5d68c_session2_lista_naming_trial070_pineapple.wav,2,a,naming,70,pineapple,779,correct,NA,Feb 13 2023 15:07:48,Agnieszka,1
5d68c,5d68c_session2_lista_naming_trial071_rocket.wav,2,a,naming,71,rocket,883,correct,NA,Feb 13 2023 15:07:59,Agnieszka,1
5d68c,5d68c_session2_lista_naming_trial072_gym.wav,2,a,naming,72,gym,1103,correct,NA,Feb 13 2023 15:08:07,Agnieszka,1
5d68c,5d68c_session2_lista_naming_trial073_caterpillar.wav,2,a,naming,73,caterpillar,842,correct,NA,Feb 13 2023 15:08:14,Agnieszka,1
5d68c,5d68c_session2_lista_naming_trial074_tie.wav,2,a,naming,74,tie,1692,correct,NA,Feb 13 2023 15:08:22,Agnieszka,1
5d68c,5d68c_session2_lista_naming_trial075_submarine.wav,2,a,naming,75,submarine,1173,correct,NA,Feb 13 2023 15:08:29,Agnieszka,1
5d68c,5d68c_session2_lista_naming_trial076_star.wav,2,a,naming,76,star,772,correct,NA,Feb 13 2023 15:08:38,Agnieszka,1
5d68c,5d68c_session2_lista_naming_trial077_cherry.wav,2,a,naming,77,cherry,817,correct,NA,Feb 13 2023 15:08:45,Agnieszka,1
5d68c,5d68c_session2_lista_naming_trial078_triangle.wav,2,a,naming,78,triangle,797,correct,NA,Feb 13 2023 15:08:53,Agnieszka,1
5d68c,5d68c_session2_lista_naming_trial079_bullet.wav,2,a,naming,79,bullet,1231,correct,NA,Feb 13 2023 15:09:06,Agnieszka,1
5d68c,5d68c_session2_lista_naming_trial080_rose.wav,2,a,naming,80,rose,727,correct,NA,Feb 13 2023 15:09:13,Agnieszka,1
5d68c,5d68c_session2_lista_naming_trial081_hat.wav,2,a,naming,81,hat,702,correct,NA,Feb 13 2023 15:09:27,Agnieszka,1
5d68c,5d68c_session2_lista_naming_trial082_zip.wav,2,a,naming,82,zip,877,correct,NA,Feb 13 2023 15:09:40,Agnieszka,1
5d68c,5d68c_session2_lista_naming_trial083_tree.wav,2,a,naming,83,tree,842,correct,NA,Feb 13 2023 15:09:47,Agnieszka,1
5d68c,5d68c_session2_lista_naming_trial084_camel.wav,2,a,naming,84,camel,973,correct,NA,Feb 13 2023 15:09:54,Agnieszka,1
5d68c,5d68c_session2_lista_naming_trial085_owl.wav,2,a,naming,85,owl,931,correct,NA,Feb 13 2023 15:10:01,Agnieszka,1
5d68c,5d68c_session2_lista_naming_trial086_battery.wav,2,a,naming,86,battery,1043,correct,NA,Feb 13 2023 15:10:09,Agnieszka,1
5d68c,5d68c_session2_lista_naming_trial087_plumber.wav,2,a,naming,87,plumber,1059,correct,NA,Feb 13 2023 15:10:20,Agnieszka,1
5d68c,5d68c_session2_lista_naming_trial088_fence.wav,2,a,naming,88,fence,883,correct,NA,Feb 13 2023 15:10:31,Agnieszka,1
5d68c,5d68c_session2_lista_naming_trial089_wing.wav,2,a,naming,89,wing,887,correct,NA,Feb 13 2023 15:10:46,Agnieszka,1
5d68c,5d68c_session2_lista_naming_trial090_island.wav,2,a,naming,90,island,1348,correct,NA,Feb 13 2023 15:10:55,Agnieszka,1
5d68c,5d68c_session2_lista_naming_trial091_flower.wav,2,a,naming,91,flower,947,correct,NA,Feb 13 2023 15:11:03,Agnieszka,1
5d68c,5d68c_session2_lista_naming_trial092_soap.wav,2,a,naming,92,soap,1253,correct,NA,Feb 13 2023 15:11:10,Agnieszka,1
5d68c,5d68c_session2_lista_naming_trial093_peg.wav,2,a,naming,93,peg,869,correct,NA,Feb 13 2023 15:11:18,Agnieszka,1
5d68c,5d68c_session2_lista_naming_trial094_orange.wav,2,a,naming,94,orange,769,correct,NA,Feb 13 2023 15:11:27,Agnieszka,1
5d68c,5d68c_session2_lista_naming_trial095_mermaid.wav,2,a,naming,95,mermaid,797,correct,NA,Feb 13 2023 15:11:34,Agnieszka,1
5d68c,5d68c_session2_lista_naming_trial096_skirt.wav,2,a,naming,96,skirt,1721,correct,NA,Feb 13 2023 15:11:55,Agnieszka,1
5d68c,5d68c_session2_lista_naming_trial097_fridge.wav,2,a,naming,97,fridge,989,correct,NA,Feb 13 2023 15:12:08,Agnieszka,1
5d68c,5d68c_session2_lista_naming_trial098_tattoo.wav,2,a,naming,98,tattoo,1266,correct,NA,Feb 13 2023 15:12:17,Agnieszka,1
5d68c,5d68c_session2_lista_naming_trial099_mouth.wav,2,a,naming,99,mouth,941,correct,NA,Feb 13 2023 15:12:25,Agnieszka,1
5d68c,5d68c_session2_lista_naming_trial100_arm.wav,2,a,naming,100,arm,868,correct,NA,Feb 13 2023 15:12:43,Agnieszka,1
5d68c,5d68c_session2_lista_naming_trial101_elbow.wav,2,a,naming,101,elbow,848,correct,NA,Feb 13 2023 15:12:50,Agnieszka,1
5d68c,5d68c_session2_lista_naming_trial102_avocado.wav,2,a,naming,102,avocado,820,correct,NA,Feb 13 2023 15:13:00,Agnieszka,1
5d68c,5d68c_session2_lista_naming_trial103_ghost.wav,2,a,naming,103,ghost,813,correct,NA,Feb 13 2023 15:13:10,Agnieszka,1
5d68c,5d68c_session2_lista_naming_trial104_pear.wav,2,a,naming,104,pear,820,correct,NA,Feb 13 2023 15:13:21,Agnieszka,1
5d68c,5d68c_session2_lista_naming_trial105_bike.wav,2,a,naming,105,bike,-1,wrong_word,NA,Feb 13 2023 15:13:28,Agnieszka,1
5d68c,5d68c_session2_lista_naming_trial106_pocket.wav,2,a,naming,106,pocket,998,correct,NA,Feb 13 2023 15:13:36,Agnieszka,1
5d68c,5d68c_session2_lista_naming_trial107_medal.wav,2,a,naming,107,medal,852,correct,NA,Feb 13 2023 15:13:44,Agnieszka,1
5d68c,5d68c_session2_lista_naming_trial108_shoe.wav,2,a,naming,108,shoe,734,correct,NA,Feb 13 2023 15:13:55,Agnieszka,1
5d68c,5d68c_session2_lista_naming_trial109_sword.wav,2,a,naming,109,sword,731,correct,NA,Feb 13 2023 15:14:04,Agnieszka,1
5d68c,5d68c_session2_lista_naming_trial110_robot.wav,2,a,naming,110,robot,890,correct,NA,Feb 13 2023 15:14:11,Agnieszka,1
5d68c,5d68c_session2_lista_naming_trial111_doctor.wav,2,a,naming,111,doctor,960,correct,NA,Feb 13 2023 15:14:21,Agnieszka,1
5d68c,5d68c_session2_lista_naming_trial112_tray.wav,2,a,naming,112,tray,1087,correct,NA,Feb 13 2023 15:14:31,Agnieszka,1
5d68c,5d68c_session2_lista_naming_trial113_lawnmower.wav,2,a,naming,113,lawnmower,-1,no_resp,NA,Feb 13 2023 15:14:38,Agnieszka,1
5d68c,5d68c_session2_lista_naming_trial114_squirrel.wav,2,a,naming,114,squirrel,718,correct,NA,Feb 13 2023 15:14:46,Agnieszka,1
5d68c,5d68c_session2_lista_naming_trial115_hippo.wav,2,a,naming,115,hippo,756,correct,NA,Feb 13 2023 15:14:53,Agnieszka,1
5d68c,5d68c_session2_lista_naming_trial116_comb.wav,2,a,naming,116,comb,912,correct,NA,Feb 13 2023 15:15:03,Agnieszka,1
5d68c,5d68c_session2_lista_naming_trial117_crab.wav,2,a,naming,117,crab,702,correct,NA,Feb 13 2023 15:15:11,Agnieszka,1
5d68c,5d68c_session2_lista_naming_trial118_tomato.wav,2,a,naming,118,tomato,813,correct,NA,Feb 13 2023 15:15:21,Agnieszka,1
5d68c,5d68c_session2_lista_naming_trial119_kangaroo.wav,2,a,naming,119,kangaroo,938,correct,NA,Feb 13 2023 15:15:32,Agnieszka,1
5d68c,5d68c_session2_lista_naming_trial120_book.wav,2,a,naming,120,book,894,correct,NA,Feb 13 2023 15:15:41,Agnieszka,1
5d68c,5d68c_session2_lista_naming_trial121_olive.wav,2,a,naming,121,olive,-1,disfluency,NA,Feb 13 2023 15:15:51,Agnieszka,1
5d68c,5d68c_session2_lista_naming_trial122_sweet.wav,2,a,naming,122,sweet,1234,correct,NA,Feb 13 2023 15:15:59,Agnieszka,1
5d68c,5d68c_session2_lista_naming_trial123_suit.wav,2,a,naming,123,suit,743,correct,NA,Feb 13 2023 15:16:08,Agnieszka,1
5d68c,5d68c_session2_lista_naming_trial124_donkey.wav,2,a,naming,124,donkey,845,correct,NA,Feb 13 2023 15:16:17,Agnieszka,1
5d68c,5d68c_session2_lista_naming_trial125_teacher.wav,2,a,naming,125,teacher,871,correct,NA,Feb 13 2023 15:16:25,Agnieszka,1
5d68c,5d68c_session2_lista_naming_trial126_drawer.wav,2,a,naming,126,drawer,1161,correct,NA,Feb 13 2023 15:16:32,Agnieszka,1
5d68c,5d68c_session2_lista_naming_trial127_tap.wav,2,a,naming,127,tap,1170,correct,NA,Feb 13 2023 15:16:39,Agnieszka,1
5d68c,5d68c_session2_lista_naming_trial128_bull.wav,2,a,naming,128,bull,1122,correct,NA,Feb 13 2023 15:16:48,Agnieszka,1
5d68c,5d68c_session2_lista_naming_trial129_suitcase.wav,2,a,naming,129,suitcase,1540,correct,NA,Feb 13 2023 15:16:58,Agnieszka,1
5d68c,5d68c_session2_lista_naming_trial130_candle.wav,2,a,naming,130,candle,1530,correct,NA,Feb 13 2023 15:17:07,Agnieszka,1
5d68c,5d68c_session2_lista_naming_trial131_sausage.wav,2,a,naming,131,sausage,938,correct,NA,Feb 13 2023 15:17:16,Agnieszka,1
5d68c,5d68c_session2_lista_naming_trial132_bus.wav,2,a,naming,132,bus,848,correct,NA,Feb 13 2023 15:17:25,Agnieszka,1
5d68c,5d68c_session2_lista_naming_trial133_wall.wav,2,a,naming,133,wall,817,correct,NA,Feb 13 2023 15:17:33,Agnieszka,1
5d68c,5d68c_session2_lista_naming_trial134_shield.wav,2,a,naming,134,shield,1399,correct,NA,Feb 13 2023 15:17:41,Agnieszka,1
5d68c,5d68c_session2_lista_naming_trial135_lighter.wav,2,a,naming,135,lighter,890,correct,NA,Feb 13 2023 15:17:51,Agnieszka,1
5d68c,5d68c_session2_lista_naming_trial136_dress.wav,2,a,naming,136,dress,931,correct,NA,Feb 13 2023 15:18:00,Agnieszka,1
5d68c,5d68c_session2_lista_naming_trial137_pencil.wav,2,a,naming,137,pencil,918,correct,NA,Feb 13 2023 15:18:09,Agnieszka,1
5d68c,5d68c_session2_lista_naming_trial138_flag.wav,2,a,naming,138,flag,947,correct,NA,Feb 13 2023 15:18:18,Agnieszka,1
5d68c,5d68c_session2_lista_naming_trial139_ruler.wav,2,a,naming,139,ruler,896,correct,NA,Feb 13 2023 15:18:27,Agnieszka,1
5d68c,5d68c_session2_lista_naming_trial140_compass.wav,2,a,naming,140,compass,1135,correct,NA,Feb 13 2023 15:18:40,Agnieszka,1
5d68c,5d68c_session2_lista_naming_trial141_kitchen.wav,2,a,naming,141,kitchen,1546,correct,NA,Feb 13 2023 15:18:51,Agnieszka,1
5d68c,5d68c_session2_lista_naming_trial142_beak.wav,2,a,naming,142,beak,1043,correct,NA,Feb 13 2023 15:19:01,Agnieszka,1
5d68c,5d68c_session2_lista_naming_trial143_knife.wav,2,a,naming,143,knife,813,correct,NA,Feb 13 2023 15:19:11,Agnieszka,1
5d68c,5d68c_session2_lista_naming_trial144_lung.wav,2,a,naming,144,lung,1183,correct,NA,Feb 13 2023 15:19:20,Agnieszka,1
5d68c,5d68c_session2_lista_naming_trial145_potato.wav,2,a,naming,145,potato,866,correct,NA,Feb 13 2023 15:19:33,Agnieszka,1
5d68c,5d68c_session2_lista_naming_trial146_koala.wav,2,a,naming,146,koala,1027,correct,NA,Feb 13 2023 15:19:42,Agnieszka,1
5d68c,5d68c_session2_lista_naming_trial147_queen.wav,2,a,naming,147,queen,887,correct,NA,Feb 13 2023 15:19:50,Agnieszka,1
5d68c,5d68c_session2_lista_naming_trial148_tunnel.wav,2,a,naming,148,tunnel,966,correct,NA,Feb 13 2023 15:19:59,Agnieszka,1
5d68c,5d68c_session2_lista_naming_trial149_fork.wav,2,a,naming,149,fork,1087,correct,NA,Feb 13 2023 15:20:11,Agnieszka,1
5d68c,5d68c_session2_lista_naming_trial150_bell.wav,2,a,naming,150,bell,938,correct,NA,Feb 13 2023 15:20:20,Agnieszka,1
