Participant_ID,File_Name,Session,List,Type_Trial,Trial_Nbr,Target,RT,Response_Trial,Comment,Date_Correction,Assessor_Name,Processed
6085a,6085a_session2_lista_naming_trial001_tap.wav,2,a,naming,1,tap,1266,correct,NA,Jan 31 2023 11:45:09,Agnieszka,1
6085a,6085a_session2_lista_naming_trial002_bus.wav,2,a,naming,2,bus,1157,correct,NA,Jan 31 2023 11:45:17,Agnieszka,1
6085a,6085a_session2_lista_naming_trial003_flipper.wav,2,a,naming,3,flipper,1826,correct,NA,Jan 31 2023 11:45:24,Agnieszka,1
6085a,6085a_session2_lista_naming_trial004_triangle.wav,2,a,naming,4,triangle,947,correct,NA,Jan 31 2023 11:45:32,Agnieszka,1
6085a,6085a_session2_lista_naming_trial005_rabbit.wav,2,a,naming,5,rabbit,893,correct,NA,Jan 31 2023 11:45:40,Agnieszka,1
6085a,6085a_session2_lista_naming_trial006_kangaroo.wav,2,a,naming,6,kangaroo,1051,correct,NA,Jan 31 2023 11:45:50,Agnieszka,1
6085a,6085a_session2_lista_naming_trial007_skirt.wav,2,a,naming,7,skirt,1431,correct,NA,Jan 31 2023 11:45:58,Agnieszka,1
6085a,6085a_session2_lista_naming_trial008_bench.wav,2,a,naming,8,bench,1431,correct,NA,Jan 31 2023 11:46:08,Agnieszka,1
6085a,6085a_session2_lista_naming_trial009_glove.wav,2,a,naming,9,glove,1116,correct,NA,Jan 31 2023 11:46:17,Agnieszka,1
6085a,6085a_session2_lista_naming_trial010_cork.wav,2,a,naming,10,cork,-1,no_resp,NA,Jan 31 2023 11:46:26,Agnieszka,1
6085a,6085a_session2_lista_naming_trial011_bike.wav,2,a,naming,11,bike,-1,wrong_word,NA,Jan 31 2023 11:46:35,Agnieszka,1
6085a,6085a_session2_lista_naming_trial012_computer.wav,2,a,naming,12,computer,1052,correct,NA,Jan 31 2023 11:46:42,Agnieszka,1
6085a,6085a_session2_lista_naming_trial013_dice.wav,2,a,naming,13,dice,938,correct,NA,Jan 31 2023 11:46:50,Agnieszka,1
6085a,6085a_session2_lista_naming_trial014_caterpillar.wav,2,a,naming,14,caterpillar,1167,correct,NA,Jan 31 2023 11:46:57,Agnieszka,1
6085a,6085a_session2_lista_naming_trial015_fireplace.wav,2,a,naming,15,fireplace,-1,wrong_word,NA,Jan 31 2023 11:47:09,Agnieszka,1
6085a,6085a_session2_lista_naming_trial016_thumb.wav,2,a,naming,16,thumb,918,correct,NA,Jan 31 2023 11:47:17,Agnieszka,1
6085a,6085a_session2_lista_naming_trial017_windmill.wav,2,a,naming,17,windmill,954,correct,NA,Jan 31 2023 11:47:33,Agnieszka,1
6085a,6085a_session2_lista_naming_trial018_kite.wav,2,a,naming,18,kite,1352,correct,NA,Jan 31 2023 11:47:40,Agnieszka,1
6085a,6085a_session2_lista_naming_trial019_wheelbarrow.wav,2,a,naming,19,wheelbarrow,1008,correct,NA,Jan 31 2023 11:47:48,Agnieszka,1
6085a,6085a_session2_lista_naming_trial020_rose.wav,2,a,naming,20,rose,1004,correct,NA,Jan 31 2023 11:47:56,Agnieszka,1
6085a,6085a_session2_lista_naming_trial021_train.wav,2,a,naming,21,train,1068,correct,NA,Jan 31 2023 11:48:04,Agnieszka,1
6085a,6085a_session2_lista_naming_trial022_fox.wav,2,a,naming,22,fox,1027,correct,NA,Jan 31 2023 11:52:23,Agnieszka,1
6085a,6085a_session2_lista_naming_trial023_butterfly.wav,2,a,naming,23,butterfly,1004,correct,NA,Jan 31 2023 11:52:31,Agnieszka,1
6085a,6085a_session2_lista_naming_trial024_cherry.wav,2,a,naming,24,cherry,928,correct,NA,Jan 31 2023 11:52:38,Agnieszka,1
6085a,6085a_session2_lista_naming_trial025_soap.wav,2,a,naming,25,soap,-1,no_resp,NA,Jan 31 2023 11:52:44,Agnieszka,1
6085a,6085a_session2_lista_naming_trial026_knife.wav,2,a,naming,26,knife,1011,correct,NA,Jan 31 2023 11:52:54,Agnieszka,1
6085a,6085a_session2_lista_naming_trial027_shower.wav,2,a,naming,27,shower,976,correct,NA,Jan 31 2023 11:53:12,Agnieszka,1
6085a,6085a_session2_lista_naming_trial028_rocket.wav,2,a,naming,28,rocket,1039,correct,NA,Jan 31 2023 11:53:27,Agnieszka,1
6085a,6085a_session2_lista_naming_trial029_curtain.wav,2,a,naming,29,curtain,1294,correct,NA,Jan 31 2023 11:53:38,Agnieszka,1
6085a,6085a_session2_lista_naming_trial030_basket.wav,2,a,naming,30,basket,943,correct,NA,Jan 31 2023 11:54:12,Agnieszka,1
6085a,6085a_session2_lista_naming_trial031_candle.wav,2,a,naming,31,candle,895,correct,NA,Jan 31 2023 11:54:32,Agnieszka,1
6085a,6085a_session2_lista_naming_trial032_doctor.wav,2,a,naming,32,doctor,1690,correct,NA,Jan 31 2023 11:54:48,Agnieszka,1
6085a,6085a_session2_lista_naming_trial033_tunnel.wav,2,a,naming,33,tunnel,1460,correct,NA,Jan 31 2023 11:54:57,Agnieszka,1
6085a,6085a_session2_lista_naming_trial034_battery.wav,2,a,naming,34,battery,1463,correct,NA,Jan 31 2023 11:55:04,Agnieszka,1
6085a,6085a_session2_lista_naming_trial035_whale.wav,2,a,naming,35,whale,1648,correct,NA,Jan 31 2023 11:55:11,Agnieszka,1
6085a,6085a_session2_lista_naming_trial036_net.wav,2,a,naming,36,net,1027,correct,NA,Jan 31 2023 11:55:19,Agnieszka,1
6085a,6085a_session2_lista_naming_trial037_crab.wav,2,a,naming,37,crab,829,correct,NA,Jan 31 2023 11:55:33,Agnieszka,1
6085a,6085a_session2_lista_naming_trial038_circle.wav,2,a,naming,38,circle,819,correct,NA,Jan 31 2023 11:55:42,Agnieszka,1
6085a,6085a_session2_lista_naming_trial039_avocado.wav,2,a,naming,39,avocado,951,correct,NA,Jan 31 2023 11:55:57,Agnieszka,1
6085a,6085a_session2_lista_naming_trial040_bull.wav,2,a,naming,40,bull,1081,correct,NA,Jan 31 2023 11:56:37,Agnieszka,1
6085a,6085a_session2_lista_naming_trial041_sun.wav,2,a,naming,41,sun,836,correct,NA,Jan 31 2023 11:56:46,Agnieszka,1
6085a,6085a_session2_lista_naming_trial042_mountain.wav,2,a,naming,42,mountain,1113,correct,NA,Jan 31 2023 11:56:53,Agnieszka,1
6085a,6085a_session2_lista_naming_trial043_bottle.wav,2,a,naming,43,bottle,880,correct,NA,Jan 31 2023 11:57:02,Agnieszka,1
6085a,6085a_session2_lista_naming_trial044_orange.wav,2,a,naming,44,orange,1016,correct,NA,Jan 31 2023 11:57:12,Agnieszka,1
6085a,6085a_session2_lista_naming_trial045_coat.wav,2,a,naming,45,coat,839,correct,NA,Jan 31 2023 11:57:20,Agnieszka,1
6085a,6085a_session2_lista_naming_trial046_bullet.wav,2,a,naming,46,bullet,-1,no_resp,NA,Jan 31 2023 11:57:28,Agnieszka,1
6085a,6085a_session2_lista_naming_trial047_snake.wav,2,a,naming,47,snake,1116,correct,NA,Jan 31 2023 11:57:36,Agnieszka,1
6085a,6085a_session2_lista_naming_trial048_castle.wav,2,a,naming,48,castle,842,correct,NA,Jan 31 2023 11:57:45,Agnieszka,1
6085a,6085a_session2_lista_naming_trial049_carrot.wav,2,a,naming,49,carrot,1036,correct,NA,Jan 31 2023 11:57:56,Agnieszka,1
6085a,6085a_session2_lista_naming_trial050_mermaid.wav,2,a,naming,50,mermaid,1075,correct,NA,Jan 31 2023 11:58:04,Agnieszka,1
6085a,6085a_session2_lista_naming_trial051_bell.wav,2,a,naming,51,bell,960,correct,NA,Jan 31 2023 11:58:18,Agnieszka,1
6085a,6085a_session2_lista_naming_trial052_jellyfish.wav,2,a,naming,52,jellyfish,-1,wrong_word,NA,Jan 31 2023 11:58:44,Agnieszka,1
6085a,6085a_session2_lista_naming_trial053_rhino.wav,2,a,naming,53,rhino,928,correct,NA,Jan 31 2023 11:58:52,Agnieszka,1
6085a,6085a_session2_lista_naming_trial054_puppet.wav,2,a,naming,54,puppet,1759,correct,NA,Jan 31 2023 11:59:07,Agnieszka,1
6085a,6085a_session2_lista_naming_trial055_lighthouse.wav,2,a,naming,55,lighthouse,1400,correct,NA,Jan 31 2023 11:59:15,Agnieszka,1
6085a,6085a_session2_lista_naming_trial056_tie.wav,2,a,naming,56,tie,1365,correct,NA,Jan 31 2023 11:59:29,Agnieszka,1
6085a,6085a_session2_lista_naming_trial057_olive.wav,2,a,naming,57,olive,-1,no_resp,NA,Jan 31 2023 11:59:39,Agnieszka,1
6085a,6085a_session2_lista_naming_trial058_ruler.wav,2,a,naming,58,ruler,1075,correct,NA,Jan 31 2023 11:59:55,Agnieszka,1
6085a,6085a_session2_lista_naming_trial059_plumber.wav,2,a,naming,59,plumber,-1,wrong_word,NA,Jan 31 2023 12:00:08,Agnieszka,1
6085a,6085a_session2_lista_naming_trial060_ear.wav,2,a,naming,60,ear,941,correct,NA,Jan 31 2023 12:00:16,Agnieszka,1
6085a,6085a_session2_lista_naming_trial061_owl.wav,2,a,naming,61,owl,1065,correct,NA,Jan 31 2023 12:00:24,Agnieszka,1
6085a,6085a_session2_lista_naming_trial062_star.wav,2,a,naming,62,star,670,correct,NA,Jan 31 2023 12:00:33,Agnieszka,1
6085a,6085a_session2_lista_naming_trial063_kitchen.wav,2,a,naming,63,kitchen,858,correct,NA,Jan 31 2023 12:00:42,Agnieszka,1
6085a,6085a_session2_lista_naming_trial064_butter.wav,2,a,naming,64,butter,-1,wrong_word,NA,Jan 31 2023 12:00:49,Agnieszka,1
6085a,6085a_session2_lista_naming_trial065_pocket.wav,2,a,naming,65,pocket,-1,no_resp,NA,Jan 31 2023 12:00:57,Agnieszka,1
6085a,6085a_session2_lista_naming_trial066_tomato.wav,2,a,naming,66,tomato,1727,uncertain,"there is a sound before 'tomato', sounds like an 'ah' maybe? not sure what it is",Jan 31 2023 12:01:47,Agnieszka,1
6085a,6085a_session2_lista_naming_trial067_onion.wav,2,a,naming,67,onion,-1,wrong_word,NA,Jan 31 2023 12:01:57,Agnieszka,1
6085a,6085a_session2_lista_naming_trial068_pineapple.wav,2,a,naming,68,pineapple,1126,correct,NA,Jan 31 2023 12:04:44,Agnieszka,1
6085a,6085a_session2_lista_naming_trial069_bracelet.wav,2,a,naming,69,bracelet,1508,correct,NA,Jan 31 2023 12:04:50,Agnieszka,1
6085a,6085a_session2_lista_naming_trial070_wing.wav,2,a,naming,70,wing,2180,correct,NA,Jan 31 2023 12:06:08,Agnieszka,1
6085a,6085a_session2_lista_naming_trial071_pear.wav,2,a,naming,71,pear,1250,correct,NA,Jan 31 2023 12:06:17,Agnieszka,1
6085a,6085a_session2_lista_naming_trial072_elbow.wav,2,a,naming,72,elbow,1702,correct,NA,Jan 31 2023 12:06:24,Agnieszka,1
6085a,6085a_session2_lista_naming_trial073_teacher.wav,2,a,naming,73,teacher,1603,correct,NA,Jan 31 2023 12:06:32,Agnieszka,1
6085a,6085a_session2_lista_naming_trial074_bear.wav,2,a,naming,74,bear,1183,correct,NA,Jan 31 2023 12:06:41,Agnieszka,1
6085a,6085a_session2_lista_naming_trial075_suit.wav,2,a,naming,75,suit,871,correct,NA,Jan 31 2023 12:07:57,Agnieszka,1
6085a,6085a_session2_lista_naming_trial076_sausage.wav,2,a,naming,76,sausage,909,correct,NA,Jan 31 2023 12:08:06,Agnieszka,1
6085a,6085a_session2_lista_naming_trial077_peg.wav,2,a,naming,77,peg,1125,correct,NA,Jan 31 2023 12:08:15,Agnieszka,1
6085a,6085a_session2_lista_naming_trial078_boxer.wav,2,a,naming,78,boxer,1075,correct,NA,Jan 31 2023 12:08:29,Agnieszka,1
6085a,6085a_session2_lista_naming_trial079_compass.wav,2,a,naming,79,compass,-1,wrong_word,NA,Jan 31 2023 12:08:38,Agnieszka,1
6085a,6085a_session2_lista_naming_trial080_fence.wav,2,a,naming,80,fence,-1,wrong_word,NA,Jan 31 2023 12:08:46,Agnieszka,1
6085a,6085a_session2_lista_naming_trial081_lawnmower.wav,2,a,naming,81,lawnmower,1062,correct,NA,Jan 31 2023 12:08:55,Agnieszka,1
6085a,6085a_session2_lista_naming_trial082_koala.wav,2,a,naming,82,koala,1403,correct,NA,Jan 31 2023 12:09:23,Agnieszka,1
6085a,6085a_session2_lista_naming_trial083_tattoo.wav,2,a,naming,83,tattoo,1823,correct,NA,Jan 31 2023 12:11:48,Agnieszka,1
6085a,6085a_session2_lista_naming_trial084_hippo.wav,2,a,naming,84,hippo,-1,wrong_word,NA,Jan 31 2023 12:12:34,Agnieszka,1
6085a,6085a_session2_lista_naming_trial085_queen.wav,2,a,naming,85,queen,1043,correct,NA,Jan 31 2023 12:12:43,Agnieszka,1
6085a,6085a_session2_lista_naming_trial086_beak.wav,2,a,naming,86,beak,1874,correct,NA,Jan 31 2023 12:12:56,Agnieszka,1
6085a,6085a_session2_lista_naming_trial087_hat.wav,2,a,naming,87,hat,1030,correct,NA,Jan 31 2023 12:13:05,Agnieszka,1
6085a,6085a_session2_lista_naming_trial088_helicopter.wav,2,a,naming,88,helicopter,941,correct,NA,Jan 31 2023 12:13:13,Agnieszka,1
6085a,6085a_session2_lista_naming_trial089_sword.wav,2,a,naming,89,sword,903,correct,NA,Jan 31 2023 12:13:22,Agnieszka,1
6085a,6085a_session2_lista_naming_trial090_medal.wav,2,a,naming,90,medal,1113,correct,NA,Jan 31 2023 12:13:49,Agnieszka,1
6085a,6085a_session2_lista_naming_trial091_donkey.wav,2,a,naming,91,donkey,986,correct,NA,Jan 31 2023 12:14:35,Agnieszka,1
6085a,6085a_session2_lista_naming_trial092_swan.wav,2,a,naming,92,swan,1078,correct,NA,Jan 31 2023 12:14:44,Agnieszka,1
6085a,6085a_session2_lista_naming_trial093_wall.wav,2,a,naming,93,wall,1065,correct,NA,Jan 31 2023 12:14:54,Agnieszka,1
6085a,6085a_session2_lista_naming_trial094_potato.wav,2,a,naming,94,potato,1081,correct,NA,Jan 31 2023 12:15:03,Agnieszka,1
6085a,6085a_session2_lista_naming_trial095_goat.wav,2,a,naming,95,goat,1065,correct,NA,Jan 31 2023 12:15:13,Agnieszka,1
6085a,6085a_session2_lista_naming_trial096_shield.wav,2,a,naming,96,shield,1154,correct,NA,Jan 31 2023 12:15:21,Agnieszka,1
6085a,6085a_session2_lista_naming_trial097_zip.wav,2,a,naming,97,zip,1078,correct,NA,Jan 31 2023 12:15:28,Agnieszka,1
6085a,6085a_session2_lista_naming_trial098_gym.wav,2,a,naming,98,gym,1231,correct,NA,Jan 31 2023 12:15:40,Agnieszka,1
6085a,6085a_session2_lista_naming_trial099_pencil.wav,2,a,naming,99,pencil,1113,correct,NA,Jan 31 2023 12:15:48,Agnieszka,1
6085a,6085a_session2_lista_naming_trial100_magnet.wav,2,a,naming,100,magnet,1192,correct,NA,Jan 31 2023 12:16:03,Agnieszka,1
6085a,6085a_session2_lista_naming_trial101_shoe.wav,2,a,naming,101,shoe,826,correct,NA,Jan 31 2023 12:16:10,Agnieszka,1
6085a,6085a_session2_lista_naming_trial102_map.wav,2,a,naming,102,map,-1,wrong_word,NA,Jan 31 2023 12:16:20,Agnieszka,1
6085a,6085a_session2_lista_naming_trial103_kiwi.wav,2,a,naming,103,kiwi,-1,wrong_word,NA,Jan 31 2023 12:16:32,Agnieszka,1
6085a,6085a_session2_lista_naming_trial104_tree.wav,2,a,naming,104,tree,-1,wrong_word,NA,Jan 31 2023 12:16:44,Agnieszka,1
6085a,6085a_session2_lista_naming_trial105_dummy.wav,2,a,naming,105,dummy,1151,correct,NA,Jan 31 2023 12:17:06,Agnieszka,1
6085a,6085a_session2_lista_naming_trial106_comb.wav,2,a,naming,106,comb,1374,correct,NA,Jan 31 2023 12:17:16,Agnieszka,1
6085a,6085a_session2_lista_naming_trial107_fridge.wav,2,a,naming,107,fridge,1020,correct,NA,Jan 31 2023 12:17:22,Agnieszka,1
6085a,6085a_session2_lista_naming_trial108_island.wav,2,a,naming,108,island,1368,correct,NA,Jan 31 2023 12:17:31,Agnieszka,1
6085a,6085a_session2_lista_naming_trial109_book.wav,2,a,naming,109,book,1027,correct,NA,Jan 31 2023 12:18:00,Agnieszka,1
6085a,6085a_session2_lista_naming_trial110_pipe.wav,2,a,naming,110,pipe,1361,correct,NA,Jan 31 2023 12:18:07,Agnieszka,1
6085a,6085a_session2_lista_naming_trial111_drum.wav,2,a,naming,111,drum,960,correct,NA,Jan 31 2023 12:18:16,Agnieszka,1
6085a,6085a_session2_lista_naming_trial112_tray.wav,2,a,naming,112,tray,-1,wrong_word,NA,Jan 31 2023 12:18:24,Agnieszka,1
6085a,6085a_session2_lista_naming_trial113_limo.wav,2,a,naming,113,limo,-1,wrong_word,NA,Jan 31 2023 12:18:30,Agnieszka,1
6085a,6085a_session2_lista_naming_trial114_submarine.wav,2,a,naming,114,submarine,1718,correct,NA,Jan 31 2023 12:18:38,Agnieszka,1
6085a,6085a_session2_lista_naming_trial115_nest.wav,2,a,naming,115,nest,1317,correct,NA,Jan 31 2023 12:18:46,Agnieszka,1
6085a,6085a_session2_lista_naming_trial116_zebra.wav,2,a,naming,116,zebra,1017,correct,NA,Jan 31 2023 12:18:54,Agnieszka,1
6085a,6085a_session2_lista_naming_trial117_arm.wav,2,a,naming,117,arm,931,correct,NA,Jan 31 2023 12:19:04,Agnieszka,1
6085a,6085a_session2_lista_naming_trial118_doughnut.wav,2,a,naming,118,doughnut,938,correct,NA,Jan 31 2023 12:19:12,Agnieszka,1
6085a,6085a_session2_lista_naming_trial119_pepper.wav,2,a,naming,119,pepper,1549,correct,NA,Jan 31 2023 12:19:21,Agnieszka,1
6085a,6085a_session2_lista_naming_trial120_lung.wav,2,a,naming,120,lung,1412,correct,NA,Jan 31 2023 12:19:28,Agnieszka,1
6085a,6085a_session2_lista_naming_trial121_squirrel.wav,2,a,naming,121,squirrel,963,correct,NA,Jan 31 2023 12:19:37,Agnieszka,1
6085a,6085a_session2_lista_naming_trial122_clown.wav,2,a,naming,122,clown,1282,correct,NA,Jan 31 2023 12:19:47,Agnieszka,1
6085a,6085a_session2_lista_naming_trial123_key.wav,2,a,naming,123,key,1116,correct,NA,Jan 31 2023 12:19:55,Agnieszka,1
6085a,6085a_session2_lista_naming_trial124_robot.wav,2,a,naming,124,robot,1075,correct,NA,Jan 31 2023 12:20:03,Agnieszka,1
6085a,6085a_session2_lista_naming_trial125_saw.wav,2,a,naming,125,saw,1750,correct,NA,Jan 31 2023 12:20:12,Agnieszka,1
6085a,6085a_session2_lista_naming_trial126_arrow.wav,2,a,naming,126,arrow,1536,correct,NA,Jan 31 2023 12:20:20,Agnieszka,1
6085a,6085a_session2_lista_naming_trial127_wave.wav,2,a,naming,127,wave,1489,correct,NA,Jan 31 2023 12:20:27,Agnieszka,1
6085a,6085a_session2_lista_naming_trial128_fork.wav,2,a,naming,128,fork,912,correct,NA,Jan 31 2023 12:20:35,Agnieszka,1
6085a,6085a_session2_lista_naming_trial129_camel.wav,2,a,naming,129,camel,2001,correct,NA,Jan 31 2023 12:20:42,Agnieszka,1
6085a,6085a_session2_lista_naming_trial130_drawer.wav,2,a,naming,130,drawer,1801,correct,NA,Jan 31 2023 12:20:50,Agnieszka,1
6085a,6085a_session2_lista_naming_trial131_flower.wav,2,a,naming,131,flower,1215,correct,NA,Jan 31 2023 12:20:59,Agnieszka,1
6085a,6085a_session2_lista_naming_trial132_lamp.wav,2,a,naming,132,lamp,1206,correct,NA,Jan 31 2023 12:21:06,Agnieszka,1
6085a,6085a_session2_lista_naming_trial133_sweet.wav,2,a,naming,133,sweet,950,correct,NA,Jan 31 2023 12:21:15,Agnieszka,1
6085a,6085a_session2_lista_naming_trial134_heel.wav,2,a,naming,134,heel,1020,correct,NA,Jan 31 2023 12:21:23,Agnieszka,1
6085a,6085a_session2_lista_naming_trial135_tractor.wav,2,a,naming,135,tractor,950,correct,NA,Jan 31 2023 12:21:33,Agnieszka,1
6085a,6085a_session2_lista_naming_trial136_tambourine.wav,2,a,naming,136,tambourine,1345,correct,NA,Jan 31 2023 12:21:42,Agnieszka,1
6085a,6085a_session2_lista_naming_trial137_mouth.wav,2,a,naming,137,mouth,1183,correct,NA,Jan 31 2023 12:21:49,Agnieszka,1
6085a,6085a_session2_lista_naming_trial138_ghost.wav,2,a,naming,138,ghost,1062,correct,NA,Jan 31 2023 12:21:57,Agnieszka,1
6085a,6085a_session2_lista_naming_trial139_bone.wav,2,a,naming,139,bone,848,correct,NA,Jan 31 2023 12:22:05,Agnieszka,1
6085a,6085a_session2_lista_naming_trial140_lighter.wav,2,a,naming,140,lighter,1282,correct,NA,Jan 31 2023 12:22:13,Agnieszka,1
6085a,6085a_session2_lista_naming_trial141_tiger.wav,2,a,naming,141,tiger,1227,correct,NA,Jan 31 2023 12:22:20,Agnieszka,1
6085a,6085a_session2_lista_naming_trial142_dress.wav,2,a,naming,142,dress,1090,correct,NA,Jan 31 2023 12:22:29,Agnieszka,1
6085a,6085a_session2_lista_naming_trial143_suitcase.wav,2,a,naming,143,suitcase,1514,correct,NA,Jan 31 2023 12:22:40,Agnieszka,1
6085a,6085a_session2_lista_naming_trial144_tongue.wav,2,a,naming,144,tongue,1266,correct,NA,Jan 31 2023 12:22:47,Agnieszka,1
6085a,6085a_session2_lista_naming_trial145_scissors.wav,2,a,naming,145,scissors,858,correct,NA,Jan 31 2023 12:22:55,Agnieszka,1
6085a,6085a_session2_lista_naming_trial146_bib.wav,2,a,naming,146,bib,1180,correct,NA,Jan 31 2023 12:23:02,Agnieszka,1
6085a,6085a_session2_lista_naming_trial147_flag.wav,2,a,naming,147,flag,954,correct,NA,Jan 31 2023 12:23:09,Agnieszka,1
6085a,6085a_session2_lista_naming_trial148_judge.wav,2,a,naming,148,judge,1027,correct,NA,Jan 31 2023 12:23:18,Agnieszka,1
6085a,6085a_session2_lista_naming_trial149_apple.wav,2,a,naming,149,apple,1014,correct,NA,Jan 31 2023 12:23:25,Agnieszka,1
6085a,6085a_session2_lista_naming_trial150_fairy.wav,2,a,naming,150,fairy,938,correct,NA,Jan 31 2023 12:23:33,Agnieszka,1
