Participant_ID,File_Name,Session,List,Type_Trial,Trial_Nbr,Target,RT,Response_Trial,Comment,Date_Correction,Assessor_Name,Processed
603d1,603d1_session2_lista_naming_trial001_bench.wav,2,a,naming,1,bench,1161,correct,NA,Jan 25 2023 09:13:18,Agnieszka,1
603d1,603d1_session2_lista_naming_trial002_arm.wav,2,a,naming,2,arm,680,correct,NA,Jan 25 2023 09:13:26,Agnieszka,1
603d1,603d1_session2_lista_naming_trial003_lamp.wav,2,a,naming,3,lamp,632,correct,NA,Jan 25 2023 09:13:44,Agnieszka,1
603d1,603d1_session2_lista_naming_trial004_circle.wav,2,a,naming,4,circle,727,correct,NA,Jan 25 2023 09:13:51,Agnieszka,1
603d1,603d1_session2_lista_naming_trial005_soap.wav,2,a,naming,5,soap,839,correct,NA,Jan 25 2023 09:13:59,Agnieszka,1
603d1,603d1_session2_lista_naming_trial006_butter.wav,2,a,naming,6,butter,785,correct,NA,Jan 25 2023 09:14:06,Agnieszka,1
603d1,603d1_session2_lista_naming_trial007_compass.wav,2,a,naming,7,compass,832,correct,NA,Jan 25 2023 09:14:14,Agnieszka,1
603d1,603d1_session2_lista_naming_trial008_rhino.wav,2,a,naming,8,rhino,673,correct,NA,Jan 25 2023 09:14:22,Agnieszka,1
603d1,603d1_session2_lista_naming_trial009_fridge.wav,2,a,naming,9,fridge,727,correct,NA,Jan 25 2023 09:14:30,Agnieszka,1
603d1,603d1_session2_lista_naming_trial010_carrot.wav,2,a,naming,10,carrot,645,correct,NA,Jan 25 2023 09:14:41,Agnieszka,1
603d1,603d1_session2_lista_naming_trial011_key.wav,2,a,naming,11,key,775,correct,NA,Jan 25 2023 09:14:48,Agnieszka,1
603d1,603d1_session2_lista_naming_trial012_submarine.wav,2,a,naming,12,submarine,-1,wrong_word,NA,Jan 25 2023 09:14:57,Agnieszka,1
603d1,603d1_session2_lista_naming_trial013_computer.wav,2,a,naming,13,computer,740,correct,NA,Jan 25 2023 09:15:39,Agnieszka,1
603d1,603d1_session2_lista_naming_trial014_caterpillar.wav,2,a,naming,14,caterpillar,708,correct,NA,Jan 25 2023 09:15:49,Agnieszka,1
603d1,603d1_session2_lista_naming_trial015_avocado.wav,2,a,naming,15,avocado,683,correct,NA,Jan 25 2023 09:16:00,Agnieszka,1
603d1,603d1_session2_lista_naming_trial016_tongue.wav,2,a,naming,16,tongue,747,correct,NA,Jan 25 2023 09:21:51,Agnieszka,1
603d1,603d1_session2_lista_naming_trial017_star.wav,2,a,naming,17,star,743,correct,NA,Jan 25 2023 09:21:59,Agnieszka,1
603d1,603d1_session2_lista_naming_trial018_helicopter.wav,2,a,naming,18,helicopter,597,correct,NA,Jan 25 2023 09:22:07,Agnieszka,1
603d1,603d1_session2_lista_naming_trial019_map.wav,2,a,naming,19,map,893,correct,NA,Jan 25 2023 09:22:16,Agnieszka,1
603d1,603d1_session2_lista_naming_trial020_cherry.wav,2,a,naming,20,cherry,638,correct,NA,Jan 25 2023 09:22:23,Agnieszka,1
603d1,603d1_session2_lista_naming_trial021_swan.wav,2,a,naming,21,swan,654,correct,NA,Jan 25 2023 09:22:31,Agnieszka,1
603d1,603d1_session2_lista_naming_trial022_pepper.wav,2,a,naming,22,pepper,711,correct,NA,Jan 25 2023 09:22:40,Agnieszka,1
603d1,603d1_session2_lista_naming_trial023_rocket.wav,2,a,naming,23,rocket,973,correct,NA,Jan 25 2023 09:22:48,Agnieszka,1
603d1,603d1_session2_lista_naming_trial024_kite.wav,2,a,naming,24,kite,1186,correct,NA,Jan 25 2023 09:22:55,Agnieszka,1
603d1,603d1_session2_lista_naming_trial025_curtain.wav,2,a,naming,25,curtain,842,correct,NA,Jan 25 2023 09:23:03,Agnieszka,1
603d1,603d1_session2_lista_naming_trial026_tree.wav,2,a,naming,26,tree,985,correct,NA,Jan 25 2023 09:23:14,Agnieszka,1
603d1,603d1_session2_lista_naming_trial027_bike.wav,2,a,naming,27,bike,-1,wrong_word,NA,Jan 25 2023 09:23:21,Agnieszka,1
603d1,603d1_session2_lista_naming_trial028_arrow.wav,2,a,naming,28,arrow,721,correct,NA,Jan 25 2023 09:23:29,Agnieszka,1
603d1,603d1_session2_lista_naming_trial029_pocket.wav,2,a,naming,29,pocket,794,correct,NA,Jan 25 2023 09:23:37,Agnieszka,1
603d1,603d1_session2_lista_naming_trial030_doctor.wav,2,a,naming,30,doctor,-1,disfluency,NA,Jan 25 2023 09:23:47,Agnieszka,1
603d1,603d1_session2_lista_naming_trial031_tie.wav,2,a,naming,31,tie,1208,correct,NA,Jan 25 2023 09:23:55,Agnieszka,1
603d1,603d1_session2_lista_naming_trial032_fireplace.wav,2,a,naming,32,fireplace,845,correct,NA,Jan 25 2023 09:24:03,Agnieszka,1
603d1,603d1_session2_lista_naming_trial033_wing.wav,2,a,naming,33,wing,801,correct,NA,Jan 25 2023 09:24:10,Agnieszka,1
603d1,603d1_session2_lista_naming_trial034_comb.wav,2,a,naming,34,comb,1723,correct,NA,Jan 25 2023 09:24:35,Agnieszka,1
603d1,603d1_session2_lista_naming_trial035_thumb.wav,2,a,naming,35,thumb,1145,correct,NA,Jan 25 2023 09:24:42,Agnieszka,1
603d1,603d1_session2_lista_naming_trial036_doughnut.wav,2,a,naming,36,doughnut,1434,correct,NA,Jan 25 2023 09:24:49,Agnieszka,1
603d1,603d1_session2_lista_naming_trial037_plumber.wav,2,a,naming,37,plumber,2552,correct,NA,Jan 25 2023 09:24:56,Agnieszka,1
603d1,603d1_session2_lista_naming_trial038_heel.wav,2,a,naming,38,heel,721,correct,NA,Jan 25 2023 09:25:05,Agnieszka,1
603d1,603d1_session2_lista_naming_trial039_rabbit.wav,2,a,naming,39,rabbit,858,correct,NA,Jan 25 2023 09:25:12,Agnieszka,1
603d1,603d1_session2_lista_naming_trial040_pipe.wav,2,a,naming,40,pipe,772,correct,NA,Jan 25 2023 09:25:21,Agnieszka,1
603d1,603d1_session2_lista_naming_trial041_boxer.wav,2,a,naming,41,boxer,763,correct,NA,Jan 25 2023 09:25:28,Agnieszka,1
603d1,603d1_session2_lista_naming_trial042_hippo.wav,2,a,naming,42,hippo,1285,uncertain,"says "hippo... pottamus", I think originally inteded hippo",Jan 25 2023 09:26:14,Agnieszka,1
603d1,603d1_session2_lista_naming_trial043_jellyfish.wav,2,a,naming,43,jellyfish,670,correct,NA,Jan 25 2023 09:26:24,Agnieszka,1
603d1,603d1_session2_lista_naming_trial044_orange.wav,2,a,naming,44,orange,1167,correct,NA,Jan 25 2023 09:26:30,Agnieszka,1
603d1,603d1_session2_lista_naming_trial045_teacher.wav,2,a,naming,45,teacher,899,correct,NA,Jan 25 2023 09:26:38,Agnieszka,1
603d1,603d1_session2_lista_naming_trial046_lung.wav,2,a,naming,46,lung,903,correct,NA,Jan 25 2023 09:26:45,Agnieszka,1
603d1,603d1_session2_lista_naming_trial047_wheelbarrow.wav,2,a,naming,47,wheelbarrow,842,correct,NA,Jan 25 2023 09:26:51,Agnieszka,1
603d1,603d1_session2_lista_naming_trial048_ghost.wav,2,a,naming,48,ghost,1852,correct,NA,Jan 25 2023 09:27:03,Agnieszka,1
603d1,603d1_session2_lista_naming_trial049_basket.wav,2,a,naming,49,basket,766,correct,NA,Jan 25 2023 09:27:23,Agnieszka,1
603d1,603d1_session2_lista_naming_trial050_camel.wav,2,a,naming,50,camel,1110,correct,NA,Jan 25 2023 09:27:30,Agnieszka,1
603d1,603d1_session2_lista_naming_trial051_kangaroo.wav,2,a,naming,51,kangaroo,773,correct,NA,Jan 25 2023 09:27:48,Agnieszka,1
603d1,603d1_session2_lista_naming_trial052_crab.wav,2,a,naming,52,crab,610,correct,NA,Jan 25 2023 09:28:02,Agnieszka,1
603d1,603d1_session2_lista_naming_trial053_net.wav,2,a,naming,53,net,785,correct,NA,Jan 25 2023 09:28:10,Agnieszka,1
603d1,603d1_session2_lista_naming_trial054_fork.wav,2,a,naming,54,fork,597,correct,NA,Jan 25 2023 09:28:18,Agnieszka,1
603d1,603d1_session2_lista_naming_trial055_bib.wav,2,a,naming,55,bib,735,correct,NA,Jan 25 2023 09:28:27,Agnieszka,1
603d1,603d1_session2_lista_naming_trial056_sweet.wav,2,a,naming,56,sweet,729,correct,NA,Jan 25 2023 09:28:52,Agnieszka,1
603d1,603d1_session2_lista_naming_trial057_queen.wav,2,a,naming,57,queen,-1,wrong_word,,Jan 25 2023 09:29:07,Agnieszka,1
603d1,603d1_session2_lista_naming_trial058_flag.wav,2,a,naming,58,flag,635,correct,NA,Jan 25 2023 09:29:21,Agnieszka,1
603d1,603d1_session2_lista_naming_trial059_tap.wav,2,a,naming,59,tap,718,correct,NA,Jan 25 2023 09:29:33,Agnieszka,1
603d1,603d1_session2_lista_naming_trial060_potato.wav,2,a,naming,60,potato,673,correct,NA,Jan 25 2023 09:29:44,Agnieszka,1
603d1,603d1_session2_lista_naming_trial061_scissors.wav,2,a,naming,61,scissors,705,correct,NA,Jan 25 2023 09:29:55,Agnieszka,1
603d1,603d1_session2_lista_naming_trial062_dice.wav,2,a,naming,62,dice,762,correct,NA,Jan 25 2023 09:30:03,Agnieszka,1
603d1,603d1_session2_lista_naming_trial063_snake.wav,2,a,naming,63,snake,692,correct,NA,Jan 25 2023 09:30:10,Agnieszka,1
603d1,603d1_session2_lista_naming_trial064_sun.wav,2,a,naming,64,sun,590,correct,NA,Jan 25 2023 09:30:22,Agnieszka,1
603d1,603d1_session2_lista_naming_trial065_wave.wav,2,a,naming,65,wave,741,correct,NA,Jan 25 2023 09:30:30,Agnieszka,1
603d1,603d1_session2_lista_naming_trial066_beak.wav,2,a,naming,66,beak,731,correct,NA,Jan 25 2023 09:30:38,Agnieszka,1
603d1,603d1_session2_lista_naming_trial067_lighter.wav,2,a,naming,67,lighter,1664,correct,NA,Jan 25 2023 09:30:53,Agnieszka,1
603d1,603d1_session2_lista_naming_trial068_knife.wav,2,a,naming,68,knife,890,correct,NA,Jan 25 2023 09:31:00,Agnieszka,1
603d1,603d1_session2_lista_naming_trial069_nest.wav,2,a,naming,69,nest,944,correct,NA,Jan 25 2023 09:31:08,Agnieszka,1
603d1,603d1_session2_lista_naming_trial070_onion.wav,2,a,naming,70,onion,635,correct,NA,Jan 25 2023 09:31:15,Agnieszka,1
603d1,603d1_session2_lista_naming_trial071_pear.wav,2,a,naming,71,pear,657,correct,NA,Jan 25 2023 09:31:24,Agnieszka,1
603d1,603d1_session2_lista_naming_trial072_pineapple.wav,2,a,naming,72,pineapple,813,correct,NA,Jan 25 2023 09:31:32,Agnieszka,1
603d1,603d1_session2_lista_naming_trial073_flipper.wav,2,a,naming,73,flipper,817,correct,NA,Jan 25 2023 09:31:51,Agnieszka,1
603d1,603d1_session2_lista_naming_trial074_fox.wav,2,a,naming,74,fox,670,correct,NA,Jan 25 2023 09:31:59,Agnieszka,1
603d1,603d1_session2_lista_naming_trial075_rose.wav,2,a,naming,75,rose,619,correct,NA,Jan 25 2023 09:32:07,Agnieszka,1
603d1,603d1_session2_lista_naming_trial076_tambourine.wav,2,a,naming,76,tambourine,680,correct,NA,Jan 25 2023 09:39:57,Agnieszka,1
603d1,603d1_session2_lista_naming_trial077_bone.wav,2,a,naming,77,bone,759,correct,NA,Jan 25 2023 09:40:06,Agnieszka,1
603d1,603d1_session2_lista_naming_trial078_mermaid.wav,2,a,naming,78,mermaid,813,correct,NA,Jan 25 2023 09:40:15,Agnieszka,1
603d1,603d1_session2_lista_naming_trial079_medal.wav,2,a,naming,79,medal,724,correct,NA,Jan 25 2023 09:40:23,Agnieszka,1
603d1,603d1_session2_lista_naming_trial080_zebra.wav,2,a,naming,80,zebra,680,correct,NA,Jan 25 2023 09:40:30,Agnieszka,1
603d1,603d1_session2_lista_naming_trial081_goat.wav,2,a,naming,81,goat,766,correct,NA,Jan 25 2023 09:40:37,Agnieszka,1
603d1,603d1_session2_lista_naming_trial082_gym.wav,2,a,naming,82,gym,1049,correct,NA,Jan 25 2023 09:40:45,Agnieszka,1
603d1,603d1_session2_lista_naming_trial083_castle.wav,2,a,naming,83,castle,861,correct,NA,Jan 25 2023 09:40:53,Agnieszka,1
603d1,603d1_session2_lista_naming_trial084_donkey.wav,2,a,naming,84,donkey,673,correct,NA,Jan 25 2023 09:41:02,Agnieszka,1
603d1,603d1_session2_lista_naming_trial085_wall.wav,2,a,naming,85,wall,832,correct,NA,Jan 25 2023 09:41:09,Agnieszka,1
603d1,603d1_session2_lista_naming_trial086_whale.wav,2,a,naming,86,whale,925,correct,NA,Jan 25 2023 09:41:17,Agnieszka,1
603d1,603d1_session2_lista_naming_trial087_tray.wav,2,a,naming,87,tray,1431,correct,NA,Jan 25 2023 09:41:27,Agnieszka,1
603d1,603d1_session2_lista_naming_trial088_peg.wav,2,a,naming,88,peg,-1,wrong_word,NA,Jan 25 2023 09:41:36,Agnieszka,1
603d1,603d1_session2_lista_naming_trial089_elbow.wav,2,a,naming,89,elbow,731,correct,NA,Jan 25 2023 09:41:47,Agnieszka,1
603d1,603d1_session2_lista_naming_trial090_skirt.wav,2,a,naming,90,skirt,762,correct,NA,Jan 25 2023 09:41:58,Agnieszka,1
603d1,603d1_session2_lista_naming_trial091_cork.wav,2,a,naming,91,cork,1043,correct,NA,Jan 25 2023 09:42:06,Agnieszka,1
603d1,603d1_session2_lista_naming_trial092_tractor.wav,2,a,naming,92,tractor,871,correct,NA,Jan 25 2023 09:42:13,Agnieszka,1
603d1,603d1_session2_lista_naming_trial093_dummy.wav,2,a,naming,93,dummy,1520,correct,NA,Jan 25 2023 09:42:20,Agnieszka,1
603d1,603d1_session2_lista_naming_trial094_saw.wav,2,a,naming,94,saw,788,correct,NA,Jan 25 2023 09:42:28,Agnieszka,1
603d1,603d1_session2_lista_naming_trial095_bus.wav,2,a,naming,95,bus,871,correct,NA,Jan 25 2023 09:42:35,Agnieszka,1
603d1,603d1_session2_lista_naming_trial096_suit.wav,2,a,naming,96,suit,696,correct,NA,Jan 25 2023 09:42:46,Agnieszka,1
603d1,603d1_session2_lista_naming_trial097_battery.wav,2,a,naming,97,battery,998,correct,NA,Jan 25 2023 09:42:55,Agnieszka,1
603d1,603d1_session2_lista_naming_trial098_sausage.wav,2,a,naming,98,sausage,737,correct,NA,Jan 25 2023 09:43:09,Agnieszka,1
603d1,603d1_session2_lista_naming_trial099_dress.wav,2,a,naming,99,dress,842,correct,NA,Jan 25 2023 09:43:18,Agnieszka,1
603d1,603d1_session2_lista_naming_trial100_lighthouse.wav,2,a,naming,100,lighthouse,1683,correct,NA,Jan 25 2023 09:43:26,Agnieszka,1
603d1,603d1_session2_lista_naming_trial101_owl.wav,2,a,naming,101,owl,740,correct,NA,Jan 25 2023 09:43:34,Agnieszka,1
603d1,603d1_session2_lista_naming_trial102_tiger.wav,2,a,naming,102,tiger,622,correct,NA,Jan 25 2023 09:43:42,Agnieszka,1
603d1,603d1_session2_lista_naming_trial103_triangle.wav,2,a,naming,103,triangle,1122,correct,NA,Jan 25 2023 09:43:56,Agnieszka,1
603d1,603d1_session2_lista_naming_trial104_island.wav,2,a,naming,104,island,832,correct,NA,Jan 25 2023 09:44:06,Agnieszka,1
603d1,603d1_session2_lista_naming_trial105_pencil.wav,2,a,naming,105,pencil,562,correct,NA,Jan 25 2023 09:44:14,Agnieszka,1
603d1,603d1_session2_lista_naming_trial106_lawnmower.wav,2,a,naming,106,lawnmower,727,correct,NA,Jan 25 2023 09:44:21,Agnieszka,1
603d1,603d1_session2_lista_naming_trial107_sword.wav,2,a,naming,107,sword,855,correct,NA,Jan 25 2023 09:44:29,Agnieszka,1
603d1,603d1_session2_lista_naming_trial108_ruler.wav,2,a,naming,108,ruler,810,correct,NA,Jan 25 2023 09:44:36,Agnieszka,1
603d1,603d1_session2_lista_naming_trial109_bullet.wav,2,a,naming,109,bullet,1403,correct,NA,Jan 25 2023 09:44:43,Agnieszka,1
603d1,603d1_session2_lista_naming_trial110_flower.wav,2,a,naming,110,flower,861,correct,NA,Jan 25 2023 09:45:11,Agnieszka,1
603d1,603d1_session2_lista_naming_trial111_suitcase.wav,2,a,naming,111,suitcase,696,correct,NA,Jan 25 2023 09:45:21,Agnieszka,1
603d1,603d1_session2_lista_naming_trial112_shower.wav,2,a,naming,112,shower,724,correct,NA,Jan 25 2023 09:45:28,Agnieszka,1
603d1,603d1_session2_lista_naming_trial113_bottle.wav,2,a,naming,113,bottle,762,correct,NA,Jan 25 2023 09:45:37,Agnieszka,1
603d1,603d1_session2_lista_naming_trial114_bracelet.wav,2,a,naming,114,bracelet,1119,correct,NA,Jan 25 2023 09:45:44,Agnieszka,1
603d1,603d1_session2_lista_naming_trial115_train.wav,2,a,naming,115,train,759,correct,NA,Jan 25 2023 09:45:52,Agnieszka,1
603d1,603d1_session2_lista_naming_trial116_windmill.wav,2,a,naming,116,windmill,1313,correct,NA,Jan 25 2023 09:46:00,Agnieszka,1
603d1,603d1_session2_lista_naming_trial117_ear.wav,2,a,naming,117,ear,1135,correct,NA,Jan 25 2023 09:46:10,Agnieszka,1
603d1,603d1_session2_lista_naming_trial118_kitchen.wav,2,a,naming,118,kitchen,716,correct,NA,Jan 25 2023 09:46:20,Agnieszka,1
603d1,603d1_session2_lista_naming_trial119_drawer.wav,2,a,naming,119,drawer,813,correct,NA,Jan 25 2023 09:46:27,Agnieszka,1
603d1,603d1_session2_lista_naming_trial120_squirrel.wav,2,a,naming,120,squirrel,645,correct,NA,Jan 25 2023 09:46:35,Agnieszka,1
603d1,603d1_session2_lista_naming_trial121_mouth.wav,2,a,naming,121,mouth,1256,correct,NA,Jan 25 2023 09:46:42,Agnieszka,1
603d1,603d1_session2_lista_naming_trial122_tunnel.wav,2,a,naming,122,tunnel,1266,correct,NA,Jan 25 2023 09:46:49,Agnieszka,1
603d1,603d1_session2_lista_naming_trial123_glove.wav,2,a,naming,123,glove,794,correct,NA,Jan 25 2023 09:46:58,Agnieszka,1
603d1,603d1_session2_lista_naming_trial124_shield.wav,2,a,naming,124,shield,1215,correct,NA,Jan 25 2023 09:47:10,Agnieszka,1
603d1,603d1_session2_lista_naming_trial125_apple.wav,2,a,naming,125,apple,619,correct,NA,Jan 25 2023 09:47:19,Agnieszka,1
603d1,603d1_session2_lista_naming_trial126_tattoo.wav,2,a,naming,126,tattoo,931,correct,NA,Jan 25 2023 09:47:30,Agnieszka,1
603d1,603d1_session2_lista_naming_trial127_robot.wav,2,a,naming,127,robot,740,correct,NA,Jan 25 2023 09:47:42,Agnieszka,1
603d1,603d1_session2_lista_naming_trial128_shoe.wav,2,a,naming,128,shoe,549,correct,NA,Jan 25 2023 09:47:50,Agnieszka,1
603d1,603d1_session2_lista_naming_trial129_butterfly.wav,2,a,naming,129,butterfly,600,correct,NA,Jan 25 2023 09:47:58,Agnieszka,1
603d1,603d1_session2_lista_naming_trial130_clown.wav,2,a,naming,130,clown,708,correct,NA,Jan 25 2023 09:48:14,Agnieszka,1
603d1,603d1_session2_lista_naming_trial131_koala.wav,2,a,naming,131,koala,724,correct,NA,Jan 25 2023 09:48:22,Agnieszka,1
603d1,603d1_session2_lista_naming_trial132_hat.wav,2,a,naming,132,hat,578,correct,NA,Jan 25 2023 09:48:29,Agnieszka,1
603d1,603d1_session2_lista_naming_trial133_judge.wav,2,a,naming,133,judge,820,correct,NA,Jan 25 2023 09:48:36,Agnieszka,1
603d1,603d1_session2_lista_naming_trial134_book.wav,2,a,naming,134,book,874,correct,NA,Jan 25 2023 09:48:46,Agnieszka,1
603d1,603d1_session2_lista_naming_trial135_magnet.wav,2,a,naming,135,magnet,-1,disfluency,NA,Jan 25 2023 09:48:52,Agnieszka,1
603d1,603d1_session2_lista_naming_trial136_tomato.wav,2,a,naming,136,tomato,804,correct,NA,Jan 25 2023 09:49:01,Agnieszka,1
603d1,603d1_session2_lista_naming_trial137_kiwi.wav,2,a,naming,137,kiwi,734,correct,NA,Jan 25 2023 09:49:09,Agnieszka,1
603d1,603d1_session2_lista_naming_trial138_bell.wav,2,a,naming,138,bell,696,correct,NA,Jan 25 2023 09:49:18,Agnieszka,1
603d1,603d1_session2_lista_naming_trial139_olive.wav,2,a,naming,139,olive,1017,correct,NA,Jan 25 2023 09:49:25,Agnieszka,1
603d1,603d1_session2_lista_naming_trial140_bear.wav,2,a,naming,140,bear,775,correct,NA,Jan 25 2023 09:49:34,Agnieszka,1
603d1,603d1_session2_lista_naming_trial141_zip.wav,2,a,naming,141,zip,654,correct,NA,Jan 25 2023 09:49:43,Agnieszka,1
603d1,603d1_session2_lista_naming_trial142_coat.wav,2,a,naming,142,coat,705,correct,NA,Jan 25 2023 09:49:52,Agnieszka,1
603d1,603d1_session2_lista_naming_trial143_fairy.wav,2,a,naming,143,fairy,737,correct,NA,Jan 25 2023 09:50:01,Agnieszka,1
603d1,603d1_session2_lista_naming_trial144_puppet.wav,2,a,naming,144,puppet,1237,correct,NA,Jan 25 2023 09:50:08,Agnieszka,1
603d1,603d1_session2_lista_naming_trial145_candle.wav,2,a,naming,145,candle,708,correct,NA,Jan 25 2023 09:50:15,Agnieszka,1
603d1,603d1_session2_lista_naming_trial146_fence.wav,2,a,naming,146,fence,702,correct,NA,Jan 25 2023 09:50:30,Agnieszka,1
603d1,603d1_session2_lista_naming_trial147_bull.wav,2,a,naming,147,bull,747,correct,NA,Jan 25 2023 09:50:40,Agnieszka,1
603d1,603d1_session2_lista_naming_trial148_mountain.wav,2,a,naming,148,mountain,817,correct,NA,Jan 25 2023 09:50:48,Agnieszka,1
603d1,603d1_session2_lista_naming_trial149_limo.wav,2,a,naming,149,limo,868,correct,NA,Jan 25 2023 09:50:56,Agnieszka,1
603d1,603d1_session2_lista_naming_trial150_drum.wav,2,a,naming,150,drum,1368,correct,NA,Jan 25 2023 09:51:06,Agnieszka,1
