Participant_ID,File_Name,Session,List,Type_Trial,Trial_Nbr,Target,RT,Response_Trial,Comment,Date_Correction,Assessor_Name,Processed
5cbcc,5cbcc_session2_lista_naming_trial001_compass.wav,2,a,naming,1,compass,1374,correct,NA,Feb 21 2023 15:47:00,Agnieszka,1
5cbcc,5cbcc_session2_lista_naming_trial002_owl.wav,2,a,naming,2,owl,1053,correct,NA,Feb 21 2023 15:47:09,Agnieszka,1
5cbcc,5cbcc_session2_lista_naming_trial003_drum.wav,2,a,naming,3,drum,842,correct,NA,Feb 21 2023 15:47:21,Agnieszka,1
5cbcc,5cbcc_session2_lista_naming_trial004_glove.wav,2,a,naming,4,glove,845,correct,NA,Feb 21 2023 15:47:28,Agnieszka,1
5cbcc,5cbcc_session2_lista_naming_trial005_sweet.wav,2,a,naming,5,sweet,947,correct,NA,Feb 21 2023 15:47:39,Agnieszka,1
5cbcc,5cbcc_session2_lista_naming_trial006_tomato.wav,2,a,naming,6,tomato,750,correct,NA,Feb 21 2023 15:47:47,Agnieszka,1
5cbcc,5cbcc_session2_lista_naming_trial007_pocket.wav,2,a,naming,7,pocket,1571,correct,NA,Feb 21 2023 15:47:53,Agnieszka,1
5cbcc,5cbcc_session2_lista_naming_trial008_pineapple.wav,2,a,naming,8,pineapple,807,correct,NA,Feb 21 2023 15:48:03,Agnieszka,1
5cbcc,5cbcc_session2_lista_naming_trial009_bottle.wav,2,a,naming,9,bottle,1702,correct,NA,Feb 21 2023 15:48:10,Agnieszka,1
5cbcc,5cbcc_session2_lista_naming_trial010_train.wav,2,a,naming,10,train,1100,correct,NA,Feb 21 2023 15:48:21,Agnieszka,1
5cbcc,5cbcc_session2_lista_naming_trial011_comb.wav,2,a,naming,11,comb,1253,correct,NA,Feb 21 2023 15:48:28,Agnieszka,1
5cbcc,5cbcc_session2_lista_naming_trial012_kangaroo.wav,2,a,naming,12,kangaroo,904,correct,NA,Feb 21 2023 15:48:35,Agnieszka,1
5cbcc,5cbcc_session2_lista_naming_trial013_pencil.wav,2,a,naming,13,pencil,858,correct,NA,Feb 21 2023 15:48:44,Agnieszka,1
5cbcc,5cbcc_session2_lista_naming_trial014_kitchen.wav,2,a,naming,14,kitchen,1078,correct,NA,Feb 21 2023 15:49:00,Agnieszka,1
5cbcc,5cbcc_session2_lista_naming_trial015_ear.wav,2,a,naming,15,ear,982,correct,NA,Feb 21 2023 15:49:08,Agnieszka,1
5cbcc,5cbcc_session2_lista_naming_trial016_tiger.wav,2,a,naming,16,tiger,855,correct,NA,Feb 21 2023 15:49:17,Agnieszka,1
5cbcc,5cbcc_session2_lista_naming_trial017_swan.wav,2,a,naming,17,swan,743,correct,NA,Feb 21 2023 15:49:30,Agnieszka,1
5cbcc,5cbcc_session2_lista_naming_trial018_wall.wav,2,a,naming,18,wall,1218,correct,NA,Feb 21 2023 15:49:38,Agnieszka,1
5cbcc,5cbcc_session2_lista_naming_trial019_caterpillar.wav,2,a,naming,19,caterpillar,1256,correct,NA,Feb 21 2023 15:49:46,Agnieszka,1
5cbcc,5cbcc_session2_lista_naming_trial020_submarine.wav,2,a,naming,20,submarine,1708,correct,NA,Feb 21 2023 15:49:53,Agnieszka,1
5cbcc,5cbcc_session2_lista_naming_trial021_zip.wav,2,a,naming,21,zip,944,correct,NA,Feb 21 2023 15:50:01,Agnieszka,1
5cbcc,5cbcc_session2_lista_naming_trial022_teacher.wav,2,a,naming,22,teacher,954,correct,NA,Feb 21 2023 15:50:08,Agnieszka,1
5cbcc,5cbcc_session2_lista_naming_trial023_bus.wav,2,a,naming,23,bus,954,correct,NA,Feb 21 2023 15:50:18,Agnieszka,1
5cbcc,5cbcc_session2_lista_naming_trial024_potato.wav,2,a,naming,24,potato,813,correct,NA,Feb 21 2023 15:50:27,Agnieszka,1
5cbcc,5cbcc_session2_lista_naming_trial025_apple.wav,2,a,naming,25,apple,1189,correct,NA,Feb 21 2023 15:50:37,Agnieszka,1
5cbcc,5cbcc_session2_lista_naming_trial026_lamp.wav,2,a,naming,26,lamp,1075,correct,NA,Feb 21 2023 15:50:44,Agnieszka,1
5cbcc,5cbcc_session2_lista_naming_trial027_avocado.wav,2,a,naming,27,avocado,903,correct,NA,Feb 21 2023 15:50:52,Agnieszka,1
5cbcc,5cbcc_session2_lista_naming_trial028_castle.wav,2,a,naming,28,castle,1052,correct,NA,Feb 21 2023 15:51:01,Agnieszka,1
5cbcc,5cbcc_session2_lista_naming_trial029_medal.wav,2,a,naming,29,medal,1081,correct,NA,Feb 21 2023 15:51:11,Agnieszka,1
5cbcc,5cbcc_session2_lista_naming_trial030_beak.wav,2,a,naming,30,beak,1078,correct,NA,Feb 21 2023 15:51:19,Agnieszka,1
5cbcc,5cbcc_session2_lista_naming_trial031_tap.wav,2,a,naming,31,tap,928,correct,NA,Feb 21 2023 15:51:29,Agnieszka,1
5cbcc,5cbcc_session2_lista_naming_trial032_dress.wav,2,a,naming,32,dress,922,correct,NA,Feb 21 2023 15:51:37,Agnieszka,1
5cbcc,5cbcc_session2_lista_naming_trial033_camel.wav,2,a,naming,33,camel,874,correct,NA,Feb 21 2023 15:51:45,Agnieszka,1
5cbcc,5cbcc_session2_lista_naming_trial034_flower.wav,2,a,naming,34,flower,868,correct,NA,Feb 21 2023 15:51:58,Agnieszka,1
5cbcc,5cbcc_session2_lista_naming_trial035_bike.wav,2,a,naming,35,bike,941,correct,NA,Feb 21 2023 15:52:05,Agnieszka,1
5cbcc,5cbcc_session2_lista_naming_trial036_bracelet.wav,2,a,naming,36,bracelet,858,correct,NA,Feb 21 2023 15:52:14,Agnieszka,1
5cbcc,5cbcc_session2_lista_naming_trial037_orange.wav,2,a,naming,37,orange,883,correct,NA,Feb 21 2023 15:52:25,Agnieszka,1
5cbcc,5cbcc_session2_lista_naming_trial038_plumber.wav,2,a,naming,38,plumber,1778,correct,NA,Feb 21 2023 15:52:37,Agnieszka,1
5cbcc,5cbcc_session2_lista_naming_trial039_candle.wav,2,a,naming,39,candle,1008,correct,NA,Feb 21 2023 15:52:46,Agnieszka,1
5cbcc,5cbcc_session2_lista_naming_trial040_shield.wav,2,a,naming,40,shield,791,correct,NA,Feb 21 2023 15:52:53,Agnieszka,1
5cbcc,5cbcc_session2_lista_naming_trial041_arrow.wav,2,a,naming,41,arrow,1603,correct,NA,Feb 21 2023 15:53:01,Agnieszka,1
5cbcc,5cbcc_session2_lista_naming_trial042_bear.wav,2,a,naming,42,bear,1167,correct,NA,Feb 21 2023 15:53:12,Agnieszka,1
5cbcc,5cbcc_session2_lista_naming_trial043_battery.wav,2,a,naming,43,battery,1317,correct,NA,Feb 21 2023 15:53:20,Agnieszka,1
5cbcc,5cbcc_session2_lista_naming_trial044_rocket.wav,2,a,naming,44,rocket,1208,correct,NA,Feb 21 2023 15:53:27,Agnieszka,1
5cbcc,5cbcc_session2_lista_naming_trial045_bull.wav,2,a,naming,45,bull,-1,uncertain,not sure if this is disfluency or some prevoicing,Feb 21 2023 15:53:55,Agnieszka,1
5cbcc,5cbcc_session2_lista_naming_trial046_kiwi.wav,2,a,naming,46,kiwi,832,correct,NA,Feb 21 2023 15:54:04,Agnieszka,1
5cbcc,5cbcc_session2_lista_naming_trial047_fence.wav,2,a,naming,47,fence,-1,wrong_word,NA,Feb 21 2023 15:54:11,Agnieszka,1
5cbcc,5cbcc_session2_lista_naming_trial048_elbow.wav,2,a,naming,48,elbow,1304,correct,NA,Feb 21 2023 15:54:18,Agnieszka,1
5cbcc,5cbcc_session2_lista_naming_trial049_suitcase.wav,2,a,naming,49,suitcase,932,correct,NA,Feb 21 2023 15:54:31,Agnieszka,1
5cbcc,5cbcc_session2_lista_naming_trial050_tree.wav,2,a,naming,50,tree,797,correct,NA,Feb 21 2023 15:54:38,Agnieszka,1
5cbcc,5cbcc_session2_lista_naming_trial051_book.wav,2,a,naming,51,book,858,correct,NA,Feb 21 2023 15:54:45,Agnieszka,1
5cbcc,5cbcc_session2_lista_naming_trial052_rabbit.wav,2,a,naming,52,rabbit,1008,correct,NA,Feb 21 2023 15:54:56,Agnieszka,1
5cbcc,5cbcc_session2_lista_naming_trial053_doughnut.wav,2,a,naming,53,doughnut,1075,correct,NA,Feb 21 2023 15:55:03,Agnieszka,1
5cbcc,5cbcc_session2_lista_naming_trial054_onion.wav,2,a,naming,54,onion,1017,correct,NA,Feb 21 2023 15:55:11,Agnieszka,1
5cbcc,5cbcc_session2_lista_naming_trial055_star.wav,2,a,naming,55,star,724,correct,NA,Feb 21 2023 15:55:19,Agnieszka,1
5cbcc,5cbcc_session2_lista_naming_trial056_knife.wav,2,a,naming,56,knife,1202,correct,NA,Feb 21 2023 15:55:26,Agnieszka,1
5cbcc,5cbcc_session2_lista_naming_trial057_lawnmower.wav,2,a,naming,57,lawnmower,1906,correct,NA,Feb 21 2023 15:55:34,Agnieszka,1
5cbcc,5cbcc_session2_lista_naming_trial058_shoe.wav,2,a,naming,58,shoe,807,correct,NA,Feb 21 2023 15:55:41,Agnieszka,1
5cbcc,5cbcc_session2_lista_naming_trial059_nest.wav,2,a,naming,59,nest,1157,correct,NA,Feb 21 2023 15:55:49,Agnieszka,1
5cbcc,5cbcc_session2_lista_naming_trial060_hippo.wav,2,a,naming,60,hippo,-1,wrong_word,NA,Feb 21 2023 15:55:55,Agnieszka,1
5cbcc,5cbcc_session2_lista_naming_trial061_tractor.wav,2,a,naming,61,tractor,982,correct,NA,Feb 21 2023 15:56:06,Agnieszka,1
5cbcc,5cbcc_session2_lista_naming_trial062_fridge.wav,2,a,naming,62,fridge,1316,correct,NA,Feb 21 2023 15:56:22,Agnieszka,1
5cbcc,5cbcc_session2_lista_naming_trial063_lung.wav,2,a,naming,63,lung,2129,correct,NA,Feb 21 2023 15:56:29,Agnieszka,1
5cbcc,5cbcc_session2_lista_naming_trial064_sword.wav,2,a,naming,64,sword,877,correct,NA,Feb 21 2023 15:56:37,Agnieszka,1
5cbcc,5cbcc_session2_lista_naming_trial065_shower.wav,2,a,naming,65,shower,866,correct,NA,Feb 21 2023 15:56:45,Agnieszka,1
5cbcc,5cbcc_session2_lista_naming_trial066_donkey.wav,2,a,naming,66,donkey,1578,correct,NA,Feb 21 2023 15:56:51,Agnieszka,1
5cbcc,5cbcc_session2_lista_naming_trial067_kite.wav,2,a,naming,67,kite,950,correct,NA,Feb 21 2023 15:57:01,Agnieszka,1
5cbcc,5cbcc_session2_lista_naming_trial068_crab.wav,2,a,naming,68,crab,845,correct,NA,Feb 21 2023 15:57:08,Agnieszka,1
5cbcc,5cbcc_session2_lista_naming_trial069_mountain.wav,2,a,naming,69,mountain,1196,correct,NA,Feb 21 2023 15:57:15,Agnieszka,1
5cbcc,5cbcc_session2_lista_naming_trial070_tie.wav,2,a,naming,70,tie,877,correct,NA,Feb 21 2023 15:57:22,Agnieszka,1
5cbcc,5cbcc_session2_lista_naming_trial071_cork.wav,2,a,naming,71,cork,-1,wrong_word,NA,Feb 21 2023 15:57:28,Agnieszka,1
5cbcc,5cbcc_session2_lista_naming_trial072_bone.wav,2,a,naming,72,bone,1062,correct,NA,Feb 21 2023 15:57:35,Agnieszka,1
5cbcc,5cbcc_session2_lista_naming_trial073_basket.wav,2,a,naming,73,basket,885,correct,NA,Feb 21 2023 15:57:47,Agnieszka,1
5cbcc,5cbcc_session2_lista_naming_trial074_puppet.wav,2,a,naming,74,puppet,2321,correct,NA,Feb 21 2023 15:57:55,Agnieszka,1
5cbcc,5cbcc_session2_lista_naming_trial075_tambourine.wav,2,a,naming,75,tambourine,1291,correct,NA,Feb 21 2023 15:58:02,Agnieszka,1
5cbcc,5cbcc_session2_lista_naming_trial076_tattoo.wav,2,a,naming,76,tattoo,1361,correct,NA,Feb 21 2023 16:05:46,Agnieszka,1
5cbcc,5cbcc_session2_lista_naming_trial077_hat.wav,2,a,naming,77,hat,1199,correct,NA,Feb 21 2023 16:05:53,Agnieszka,1
5cbcc,5cbcc_session2_lista_naming_trial078_carrot.wav,2,a,naming,78,carrot,1053,correct,NA,Feb 21 2023 16:06:02,Agnieszka,1
5cbcc,5cbcc_session2_lista_naming_trial079_dummy.wav,2,a,naming,79,dummy,1259,correct,NA,Feb 21 2023 16:06:10,Agnieszka,1
5cbcc,5cbcc_session2_lista_naming_trial080_zebra.wav,2,a,naming,80,zebra,845,correct,NA,Feb 21 2023 16:06:18,Agnieszka,1
5cbcc,5cbcc_session2_lista_naming_trial081_tunnel.wav,2,a,naming,81,tunnel,1524,correct,NA,Feb 21 2023 16:06:25,Agnieszka,1
5cbcc,5cbcc_session2_lista_naming_trial082_fairy.wav,2,a,naming,82,fairy,966,correct,NA,Feb 21 2023 16:06:43,Agnieszka,1
5cbcc,5cbcc_session2_lista_naming_trial083_wheelbarrow.wav,2,a,naming,83,wheelbarrow,-1,disfluency,NA,Feb 21 2023 16:06:55,Agnieszka,1
5cbcc,5cbcc_session2_lista_naming_trial084_gym.wav,2,a,naming,84,gym,1377,correct,NA,Feb 21 2023 16:07:04,Agnieszka,1
5cbcc,5cbcc_session2_lista_naming_trial085_circle.wav,2,a,naming,85,circle,1141,correct,NA,Feb 21 2023 16:07:14,Agnieszka,1
5cbcc,5cbcc_session2_lista_naming_trial086_lighter.wav,2,a,naming,86,lighter,947,correct,NA,Feb 21 2023 16:07:23,Agnieszka,1
5cbcc,5cbcc_session2_lista_naming_trial087_thumb.wav,2,a,naming,87,thumb,718,correct,NA,Feb 21 2023 16:07:39,Agnieszka,1
5cbcc,5cbcc_session2_lista_naming_trial088_squirrel.wav,2,a,naming,88,squirrel,747,correct,NA,Feb 21 2023 16:07:49,Agnieszka,1
5cbcc,5cbcc_session2_lista_naming_trial089_pepper.wav,2,a,naming,89,pepper,817,correct,NA,Feb 21 2023 16:07:57,Agnieszka,1
5cbcc,5cbcc_session2_lista_naming_trial090_doctor.wav,2,a,naming,90,doctor,1383,correct,NA,Feb 21 2023 16:08:05,Agnieszka,1
5cbcc,5cbcc_session2_lista_naming_trial091_pear.wav,2,a,naming,91,pear,810,correct,NA,Feb 21 2023 16:08:13,Agnieszka,1
5cbcc,5cbcc_session2_lista_naming_trial092_windmill.wav,2,a,naming,92,windmill,1371,correct,NA,Feb 21 2023 16:08:20,Agnieszka,1
5cbcc,5cbcc_session2_lista_naming_trial093_fork.wav,2,a,naming,93,fork,890,correct,NA,Feb 21 2023 16:08:27,Agnieszka,1
5cbcc,5cbcc_session2_lista_naming_trial094_bullet.wav,2,a,naming,94,bullet,-1,wrong_word,NA,Feb 21 2023 16:08:35,Agnieszka,1
5cbcc,5cbcc_session2_lista_naming_trial095_mermaid.wav,2,a,naming,95,mermaid,1044,correct,NA,Feb 21 2023 16:08:42,Agnieszka,1
5cbcc,5cbcc_session2_lista_naming_trial096_soap.wav,2,a,naming,96,soap,966,correct,NA,Feb 21 2023 16:08:52,Agnieszka,1
5cbcc,5cbcc_session2_lista_naming_trial097_sun.wav,2,a,naming,97,sun,842,correct,NA,Feb 21 2023 16:09:02,Agnieszka,1
5cbcc,5cbcc_session2_lista_naming_trial098_ruler.wav,2,a,naming,98,ruler,1450,correct,NA,Feb 21 2023 16:09:13,Agnieszka,1
5cbcc,5cbcc_session2_lista_naming_trial099_koala.wav,2,a,naming,99,koala,1743,correct,NA,Feb 21 2023 16:09:21,Agnieszka,1
5cbcc,5cbcc_session2_lista_naming_trial100_queen.wav,2,a,naming,100,queen,1390,correct,NA,Feb 21 2023 16:09:28,Agnieszka,1
5cbcc,5cbcc_session2_lista_naming_trial101_scissors.wav,2,a,naming,101,scissors,963,correct,NA,Feb 21 2023 16:09:39,Agnieszka,1
5cbcc,5cbcc_session2_lista_naming_trial102_limo.wav,2,a,naming,102,limo,-1,wrong_word,NA,Feb 21 2023 16:09:45,Agnieszka,1
5cbcc,5cbcc_session2_lista_naming_trial103_clown.wav,2,a,naming,103,clown,1457,correct,NA,Feb 21 2023 16:09:52,Agnieszka,1
5cbcc,5cbcc_session2_lista_naming_trial104_peg.wav,2,a,naming,104,peg,925,correct,NA,Feb 21 2023 16:10:00,Agnieszka,1
5cbcc,5cbcc_session2_lista_naming_trial105_tray.wav,2,a,naming,105,tray,1581,correct,NA,Feb 21 2023 16:10:10,Agnieszka,1
5cbcc,5cbcc_session2_lista_naming_trial106_skirt.wav,2,a,naming,106,skirt,1020,correct,NA,Feb 21 2023 16:10:17,Agnieszka,1
5cbcc,5cbcc_session2_lista_naming_trial107_drawer.wav,2,a,naming,107,drawer,1425,correct,NA,Feb 21 2023 16:10:24,Agnieszka,1
5cbcc,5cbcc_session2_lista_naming_trial108_bell.wav,2,a,naming,108,bell,1457,correct,NA,Feb 21 2023 16:10:31,Agnieszka,1
5cbcc,5cbcc_session2_lista_naming_trial109_wave.wav,2,a,naming,109,wave,-1,wrong_word,NA,Feb 21 2023 16:10:37,Agnieszka,1
5cbcc,5cbcc_session2_lista_naming_trial110_magnet.wav,2,a,naming,110,magnet,1231,correct,NA,Feb 21 2023 16:10:44,Agnieszka,1
5cbcc,5cbcc_session2_lista_naming_trial111_rhino.wav,2,a,naming,111,rhino,-1,correct,correct but speaking in the beginning,Feb 21 2023 16:11:05,Agnieszka,1
5cbcc,5cbcc_session2_lista_naming_trial112_mouth.wav,2,a,naming,112,mouth,1059,correct,NA,Feb 21 2023 16:11:14,Agnieszka,1
5cbcc,5cbcc_session2_lista_naming_trial113_snake.wav,2,a,naming,113,snake,817,correct,NA,Feb 21 2023 16:11:21,Agnieszka,1
5cbcc,5cbcc_session2_lista_naming_trial114_butter.wav,2,a,naming,114,butter,1747,correct,NA,Feb 21 2023 16:11:28,Agnieszka,1
5cbcc,5cbcc_session2_lista_naming_trial115_helicopter.wav,2,a,naming,115,helicopter,1361,correct,NA,Feb 21 2023 16:11:36,Agnieszka,1
5cbcc,5cbcc_session2_lista_naming_trial116_tongue.wav,2,a,naming,116,tongue,963,correct,NA,Feb 21 2023 16:11:46,Agnieszka,1
5cbcc,5cbcc_session2_lista_naming_trial117_suit.wav,2,a,naming,117,suit,1250,correct,NA,Feb 21 2023 16:11:59,Agnieszka,1
5cbcc,5cbcc_session2_lista_naming_trial118_triangle.wav,2,a,naming,118,triangle,829,correct,NA,Feb 21 2023 16:12:07,Agnieszka,1
5cbcc,5cbcc_session2_lista_naming_trial119_goat.wav,2,a,naming,119,goat,1584,correct,NA,Feb 21 2023 16:12:14,Agnieszka,1
5cbcc,5cbcc_session2_lista_naming_trial120_coat.wav,2,a,naming,120,coat,1329,correct,NA,Feb 21 2023 16:12:21,Agnieszka,1
5cbcc,5cbcc_session2_lista_naming_trial121_map.wav,2,a,naming,121,map,1352,correct,NA,Feb 21 2023 16:12:28,Agnieszka,1
5cbcc,5cbcc_session2_lista_naming_trial122_boxer.wav,2,a,naming,122,boxer,1157,correct,NA,Feb 21 2023 16:12:36,Agnieszka,1
5cbcc,5cbcc_session2_lista_naming_trial123_heel.wav,2,a,naming,123,heel,1116,correct,NA,Feb 21 2023 16:12:43,Agnieszka,1
5cbcc,5cbcc_session2_lista_naming_trial124_cherry.wav,2,a,naming,124,cherry,925,correct,NA,Feb 21 2023 16:12:50,Agnieszka,1
5cbcc,5cbcc_session2_lista_naming_trial125_bench.wav,2,a,naming,125,bench,1460,correct,NA,Feb 21 2023 16:12:59,Agnieszka,1
5cbcc,5cbcc_session2_lista_naming_trial126_jellyfish.wav,2,a,naming,126,jellyfish,-1,wrong_word,NA,Feb 21 2023 16:13:07,Agnieszka,1
5cbcc,5cbcc_session2_lista_naming_trial127_olive.wav,2,a,naming,127,olive,-1,correct,starts with the end of the previous word,Feb 21 2023 16:13:26,Agnieszka,1
5cbcc,5cbcc_session2_lista_naming_trial128_pipe.wav,2,a,naming,128,pipe,1454,correct,NA,Feb 21 2023 16:13:33,Agnieszka,1
5cbcc,5cbcc_session2_lista_naming_trial129_curtain.wav,2,a,naming,129,curtain,1272,correct,NA,Feb 21 2023 16:13:41,Agnieszka,1
5cbcc,5cbcc_session2_lista_naming_trial130_butterfly.wav,2,a,naming,130,butterfly,1342,correct,NA,Feb 21 2023 16:13:48,Agnieszka,1
5cbcc,5cbcc_session2_lista_naming_trial131_whale.wav,2,a,naming,131,whale,1667,correct,NA,Feb 21 2023 16:14:03,Agnieszka,1
5cbcc,5cbcc_session2_lista_naming_trial132_saw.wav,2,a,naming,132,saw,-1,disfluency,NA,Feb 21 2023 16:14:11,Agnieszka,1
5cbcc,5cbcc_session2_lista_naming_trial133_net.wav,2,a,naming,133,net,1087,correct,NA,Feb 21 2023 16:14:18,Agnieszka,1
5cbcc,5cbcc_session2_lista_naming_trial134_wing.wav,2,a,naming,134,wing,1030,correct,NA,Feb 21 2023 16:14:27,Agnieszka,1
5cbcc,5cbcc_session2_lista_naming_trial135_robot.wav,2,a,naming,135,robot,852,correct,NA,Feb 21 2023 16:14:35,Agnieszka,1
5cbcc,5cbcc_session2_lista_naming_trial136_key.wav,2,a,naming,136,key,915,correct,NA,Feb 21 2023 16:14:43,Agnieszka,1
5cbcc,5cbcc_session2_lista_naming_trial137_flag.wav,2,a,naming,137,flag,868,correct,NA,Feb 21 2023 16:16:22,Agnieszka,1
5cbcc,5cbcc_session2_lista_naming_trial138_fox.wav,2,a,naming,138,fox,1221,correct,NA,Feb 21 2023 16:16:37,Agnieszka,1
5cbcc,5cbcc_session2_lista_naming_trial139_dice.wav,2,a,naming,139,dice,1091,correct,NA,Feb 21 2023 16:16:47,Agnieszka,1
5cbcc,5cbcc_session2_lista_naming_trial140_computer.wav,2,a,naming,140,computer,1253,correct,NA,Feb 21 2023 16:16:54,Agnieszka,1
5cbcc,5cbcc_session2_lista_naming_trial141_judge.wav,2,a,naming,141,judge,1288,correct,NA,Feb 21 2023 16:17:01,Agnieszka,1
5cbcc,5cbcc_session2_lista_naming_trial142_lighthouse.wav,2,a,naming,142,lighthouse,1406,correct,NA,Feb 21 2023 16:17:08,Agnieszka,1
5cbcc,5cbcc_session2_lista_naming_trial143_island.wav,2,a,naming,143,island,1387,correct,NA,Feb 21 2023 16:17:14,Agnieszka,1
5cbcc,5cbcc_session2_lista_naming_trial144_bib.wav,2,a,naming,144,bib,1747,correct,NA,Feb 21 2023 16:17:21,Agnieszka,1
5cbcc,5cbcc_session2_lista_naming_trial145_sausage.wav,2,a,naming,145,sausage,906,correct,NA,Feb 21 2023 16:17:29,Agnieszka,1
5cbcc,5cbcc_session2_lista_naming_trial146_ghost.wav,2,a,naming,146,ghost,960,correct,NA,Feb 21 2023 16:17:37,Agnieszka,1
5cbcc,5cbcc_session2_lista_naming_trial147_fireplace.wav,2,a,naming,147,fireplace,1049,correct,NA,Feb 21 2023 16:18:03,Agnieszka,1
5cbcc,5cbcc_session2_lista_naming_trial148_rose.wav,2,a,naming,148,rose,1055,correct,NA,Feb 21 2023 16:18:11,Agnieszka,1
5cbcc,5cbcc_session2_lista_naming_trial149_arm.wav,2,a,naming,149,arm,1438,correct,NA,Feb 21 2023 16:18:19,Agnieszka,1
5cbcc,5cbcc_session2_lista_naming_trial150_flipper.wav,2,a,naming,150,flipper,-1,wrong_word,NA,Feb 21 2023 16:18:26,Agnieszka,1
