Participant_ID,File_Name,Session,List,Type_Trial,Trial_Nbr,Target,RT,Response_Trial,Comment,Date_Correction,Assessor_Name,Processed
62b1f,62b1f_session2_lista_naming_trial001_snake.wav,2,a,naming,1,snake,1106,correct,NA,Jan 23 2023 12:26:21,Agnieszka,1
62b1f,62b1f_session2_lista_naming_trial002_fox.wav,2,a,naming,2,fox,933,correct,NA,Jan 23 2023 12:26:34,Agnieszka,1
62b1f,62b1f_session2_lista_naming_trial003_thumb.wav,2,a,naming,3,thumb,917,correct,NA,Jan 23 2023 12:26:56,Agnieszka,1
62b1f,62b1f_session2_lista_naming_trial004_apple.wav,2,a,naming,4,apple,917,correct,NA,Jan 23 2023 12:27:04,Agnieszka,1
62b1f,62b1f_session2_lista_naming_trial005_wheelbarrow.wav,2,a,naming,5,wheelbarrow,1198,correct,NA,Jan 23 2023 12:27:11,Agnieszka,1
62b1f,62b1f_session2_lista_naming_trial006_crab.wav,2,a,naming,6,crab,1009,correct,NA,Jan 23 2023 12:27:47,Agnieszka,1
62b1f,62b1f_session2_lista_naming_trial007_heel.wav,2,a,naming,7,heel,1643,uncertain,can't hear the initial 'h',Jan 23 2023 12:28:17,Agnieszka,1
62b1f,62b1f_session2_lista_naming_trial008_pencil.wav,2,a,naming,8,pencil,986,correct,NA,Jan 23 2023 12:28:25,Agnieszka,1
62b1f,62b1f_session2_lista_naming_trial009_pear.wav,2,a,naming,9,pear,920,correct,NA,Jan 23 2023 12:28:37,Agnieszka,1
62b1f,62b1f_session2_lista_naming_trial010_shower.wav,2,a,naming,10,shower,1097,correct,NA,Jan 23 2023 12:28:49,Agnieszka,1
62b1f,62b1f_session2_lista_naming_trial011_sausage.wav,2,a,naming,11,sausage,974,correct,NA,Jan 23 2023 12:28:58,Agnieszka,1
62b1f,62b1f_session2_lista_naming_trial012_comb.wav,2,a,naming,12,comb,1302,correct,NA,Jan 23 2023 12:29:05,Agnieszka,1
62b1f,62b1f_session2_lista_naming_trial013_bracelet.wav,2,a,naming,13,bracelet,1384,correct,NA,Jan 23 2023 12:29:11,Agnieszka,1
62b1f,62b1f_session2_lista_naming_trial014_bike.wav,2,a,naming,14,bike,1068,correct,NA,Jan 23 2023 12:29:21,Agnieszka,1
62b1f,62b1f_session2_lista_naming_trial015_butter.wav,2,a,naming,15,butter,1157,correct,NA,Jan 23 2023 12:29:28,Agnieszka,1
62b1f,62b1f_session2_lista_naming_trial016_bench.wav,2,a,naming,16,bench,1116,correct,NA,Jan 23 2023 12:29:35,Agnieszka,1
62b1f,62b1f_session2_lista_naming_trial017_goat.wav,2,a,naming,17,goat,-1,uncertain,NA,Jan 23 2023 12:29:55,Agnieszka,1
62b1f,62b1f_session2_lista_naming_trial018_helicopter.wav,2,a,naming,18,helicopter,1084,correct,NA,Jan 23 2023 12:30:04,Agnieszka,1
62b1f,62b1f_session2_lista_naming_trial019_teacher.wav,2,a,naming,19,teacher,1109,correct,NA,Jan 23 2023 12:30:11,Agnieszka,1
62b1f,62b1f_session2_lista_naming_trial020_tunnel.wav,2,a,naming,20,tunnel,1270,correct,NA,Jan 23 2023 12:30:19,Agnieszka,1
62b1f,62b1f_session2_lista_naming_trial021_mermaid.wav,2,a,naming,21,mermaid,1589,correct,NA,Jan 23 2023 12:30:27,Agnieszka,1
62b1f,62b1f_session2_lista_naming_trial022_peg.wav,2,a,naming,22,peg,2233,correct,NA,Jan 23 2023 12:30:36,Agnieszka,1
62b1f,62b1f_session2_lista_naming_trial023_whale.wav,2,a,naming,23,whale,1138,correct,NA,Jan 23 2023 12:30:47,Agnieszka,1
62b1f,62b1f_session2_lista_naming_trial024_fence.wav,2,a,naming,24,fence,955,correct,NA,Jan 23 2023 12:30:54,Agnieszka,1
62b1f,62b1f_session2_lista_naming_trial025_arrow.wav,2,a,naming,25,arrow,1264,correct,NA,Jan 23 2023 12:31:02,Agnieszka,1
62b1f,62b1f_session2_lista_naming_trial026_rhino.wav,2,a,naming,26,rhino,1128,correct,NA,Jan 23 2023 12:31:10,Agnieszka,1
62b1f,62b1f_session2_lista_naming_trial027_train.wav,2,a,naming,27,train,1100,correct,NA,Jan 23 2023 12:31:17,Agnieszka,1
62b1f,62b1f_session2_lista_naming_trial028_map.wav,2,a,naming,28,map,1820,correct,NA,Jan 23 2023 12:31:30,Agnieszka,1
62b1f,62b1f_session2_lista_naming_trial029_lawnmower.wav,2,a,naming,29,lawnmower,1640,correct,NA,Jan 23 2023 12:31:39,Agnieszka,1
62b1f,62b1f_session2_lista_naming_trial030_camel.wav,2,a,naming,30,camel,1027,correct,NA,Jan 23 2023 12:32:13,Agnieszka,1
62b1f,62b1f_session2_lista_naming_trial031_knife.wav,2,a,naming,31,knife,1018,correct,NA,Jan 23 2023 12:32:19,Agnieszka,1
62b1f,62b1f_session2_lista_naming_trial032_lighter.wav,2,a,naming,32,lighter,1185,correct,NA,Jan 23 2023 12:32:30,Agnieszka,1
62b1f,62b1f_session2_lista_naming_trial033_mountain.wav,2,a,naming,33,mountain,1820,correct,NA,Jan 23 2023 12:32:40,Agnieszka,1
62b1f,62b1f_session2_lista_naming_trial034_hippo.wav,2,a,naming,34,hippo,1160,correct,NA,Jan 23 2023 12:32:55,Agnieszka,1
62b1f,62b1f_session2_lista_naming_trial035_suitcase.wav,2,a,naming,35,suitcase,1874,correct,NA,Jan 23 2023 12:33:01,Agnieszka,1
62b1f,62b1f_session2_lista_naming_trial036_rocket.wav,2,a,naming,36,rocket,1059,correct,NA,Jan 23 2023 12:33:08,Agnieszka,1
62b1f,62b1f_session2_lista_naming_trial037_wing.wav,2,a,naming,37,wing,1062,correct,NA,Jan 23 2023 12:33:15,Agnieszka,1
62b1f,62b1f_session2_lista_naming_trial038_donkey.wav,2,a,naming,38,donkey,1239,correct,NA,Jan 23 2023 12:33:22,Agnieszka,1
62b1f,62b1f_session2_lista_naming_trial039_rose.wav,2,a,naming,39,rose,1091,correct,NA,Jan 23 2023 12:33:29,Agnieszka,1
62b1f,62b1f_session2_lista_naming_trial040_jellyfish.wav,2,a,naming,40,jellyfish,1233,correct,NA,Jan 23 2023 12:33:37,Agnieszka,1
62b1f,62b1f_session2_lista_naming_trial041_computer.wav,2,a,naming,41,computer,1526,correct,NA,Jan 23 2023 12:33:44,Agnieszka,1
62b1f,62b1f_session2_lista_naming_trial042_mouth.wav,2,a,naming,42,mouth,1157,correct,NA,Jan 23 2023 12:33:51,Agnieszka,1
62b1f,62b1f_session2_lista_naming_trial043_plumber.wav,2,a,naming,43,plumber,1649,correct,NA,Jan 23 2023 12:33:58,Agnieszka,1
62b1f,62b1f_session2_lista_naming_trial044_skirt.wav,2,a,naming,44,skirt,1002,correct,NA,Jan 23 2023 12:34:07,Agnieszka,1
62b1f,62b1f_session2_lista_naming_trial045_suit.wav,2,a,naming,45,suit,1198,correct,NA,Jan 23 2023 12:34:15,Agnieszka,1
62b1f,62b1f_session2_lista_naming_trial046_kangaroo.wav,2,a,naming,46,kangaroo,1596,correct,NA,Jan 23 2023 12:34:28,Agnieszka,1
62b1f,62b1f_session2_lista_naming_trial047_pepper.wav,2,a,naming,47,pepper,1087,correct,NA,Jan 23 2023 12:34:36,Agnieszka,1
62b1f,62b1f_session2_lista_naming_trial048_carrot.wav,2,a,naming,48,carrot,1059,correct,NA,Jan 23 2023 12:34:44,Agnieszka,1
62b1f,62b1f_session2_lista_naming_trial049_castle.wav,2,a,naming,49,castle,1229,correct,NA,Jan 23 2023 12:34:51,Agnieszka,1
62b1f,62b1f_session2_lista_naming_trial050_key.wav,2,a,naming,50,key,1113,correct,NA,Jan 23 2023 12:34:59,Agnieszka,1
62b1f,62b1f_session2_lista_naming_trial051_bib.wav,2,a,naming,51,bib,-1,disfluency,NA,Jan 23 2023 12:35:07,Agnieszka,1
62b1f,62b1f_session2_lista_naming_trial052_drum.wav,2,a,naming,52,drum,-1,wrong_word,NA,Jan 23 2023 12:35:14,Agnieszka,1
62b1f,62b1f_session2_lista_naming_trial053_kitchen.wav,2,a,naming,53,kitchen,1185,correct,NA,Jan 23 2023 12:35:20,Agnieszka,1
62b1f,62b1f_session2_lista_naming_trial054_book.wav,2,a,naming,54,book,1593,correct,NA,Jan 23 2023 12:35:28,Agnieszka,1
62b1f,62b1f_session2_lista_naming_trial055_clown.wav,2,a,naming,55,clown,1198,correct,NA,Jan 23 2023 12:35:35,Agnieszka,1
62b1f,62b1f_session2_lista_naming_trial056_bull.wav,2,a,naming,56,bull,1334,correct,NA,Jan 23 2023 12:35:42,Agnieszka,1
62b1f,62b1f_session2_lista_naming_trial057_fireplace.wav,2,a,naming,57,fireplace,1128,correct,NA,Jan 23 2023 12:35:50,Agnieszka,1
62b1f,62b1f_session2_lista_naming_trial058_magnet.wav,2,a,naming,58,magnet,1239,correct,NA,Jan 23 2023 12:35:58,Agnieszka,1
62b1f,62b1f_session2_lista_naming_trial059_tap.wav,2,a,naming,59,tap,1188,correct,NA,Jan 23 2023 12:36:08,Agnieszka,1
62b1f,62b1f_session2_lista_naming_trial060_windmill.wav,2,a,naming,60,windmill,1097,correct,NA,Jan 23 2023 12:36:15,Agnieszka,1
62b1f,62b1f_session2_lista_naming_trial061_ruler.wav,2,a,naming,61,ruler,1252,correct,NA,Jan 23 2023 12:36:24,Agnieszka,1
62b1f,62b1f_session2_lista_naming_trial062_tie.wav,2,a,naming,62,tie,1024,correct,NA,Jan 23 2023 12:36:31,Agnieszka,1
62b1f,62b1f_session2_lista_naming_trial063_doctor.wav,2,a,naming,63,doctor,1267,correct,NA,Jan 23 2023 12:36:42,Agnieszka,1
62b1f,62b1f_session2_lista_naming_trial064_zebra.wav,2,a,naming,64,zebra,971,correct,NA,Jan 23 2023 12:36:49,Agnieszka,1
62b1f,62b1f_session2_lista_naming_trial065_pineapple.wav,2,a,naming,65,pineapple,936,correct,NA,Jan 23 2023 12:37:06,Agnieszka,1
62b1f,62b1f_session2_lista_naming_trial066_doughnut.wav,2,a,naming,66,doughnut,993,correct,NA,Jan 23 2023 12:37:13,Agnieszka,1
62b1f,62b1f_session2_lista_naming_trial067_bear.wav,2,a,naming,67,bear,1545,correct,NA,Jan 23 2023 12:37:19,Agnieszka,1
62b1f,62b1f_session2_lista_naming_trial068_wall.wav,2,a,naming,68,wall,1630,correct,NA,Jan 23 2023 12:37:27,Agnieszka,1
62b1f,62b1f_session2_lista_naming_trial069_robot.wav,2,a,naming,69,robot,1135,correct,NA,Jan 23 2023 12:37:36,Agnieszka,1
62b1f,62b1f_session2_lista_naming_trial070_star.wav,2,a,naming,70,star,860,correct,NA,Jan 23 2023 12:37:44,Agnieszka,1
62b1f,62b1f_session2_lista_naming_trial071_fridge.wav,2,a,naming,71,fridge,1141,correct,NA,Jan 23 2023 12:37:51,Agnieszka,1
62b1f,62b1f_session2_lista_naming_trial072_bus.wav,2,a,naming,72,bus,1899,correct,NA,Jan 23 2023 12:38:00,Agnieszka,1
62b1f,62b1f_session2_lista_naming_trial073_bottle.wav,2,a,naming,73,bottle,1081,correct,NA,Jan 23 2023 12:38:07,Agnieszka,1
62b1f,62b1f_session2_lista_naming_trial074_tree.wav,2,a,naming,74,tree,1034,correct,NA,Jan 23 2023 12:38:13,Agnieszka,1
62b1f,62b1f_session2_lista_naming_trial075_kite.wav,2,a,naming,75,kite,1188,correct,NA,Jan 23 2023 12:38:20,Agnieszka,1
62b1f,62b1f_session2_lista_naming_trial076_owl.wav,2,a,naming,76,owl,1192,correct,NA,Jan 23 2023 12:38:26,Agnieszka,1
62b1f,62b1f_session2_lista_naming_trial077_onion.wav,2,a,naming,77,onion,1132,correct,NA,Jan 23 2023 12:38:34,Agnieszka,1
62b1f,62b1f_session2_lista_naming_trial078_zip.wav,2,a,naming,78,zip,1523,correct,NA,Jan 23 2023 12:38:44,Agnieszka,1
62b1f,62b1f_session2_lista_naming_trial079_arm.wav,2,a,naming,79,arm,1267,correct,NA,Jan 23 2023 12:38:52,Agnieszka,1
62b1f,62b1f_session2_lista_naming_trial080_coat.wav,2,a,naming,80,coat,1169,correct,NA,Jan 23 2023 12:39:01,Agnieszka,1
62b1f,62b1f_session2_lista_naming_trial081_tongue.wav,2,a,naming,81,tongue,1182,correct,NA,Jan 23 2023 12:39:10,Agnieszka,1
62b1f,62b1f_session2_lista_naming_trial082_scissors.wav,2,a,naming,82,scissors,929,correct,NA,Jan 23 2023 12:39:18,Agnieszka,1
62b1f,62b1f_session2_lista_naming_trial083_candle.wav,2,a,naming,83,candle,967,correct,NA,Jan 23 2023 12:39:25,Agnieszka,1
62b1f,62b1f_session2_lista_naming_trial084_fork.wav,2,a,naming,84,fork,1081,correct,NA,Jan 23 2023 12:39:36,Agnieszka,1
62b1f,62b1f_session2_lista_naming_trial085_swan.wav,2,a,naming,85,swan,993,correct,NA,Jan 23 2023 12:39:44,Agnieszka,1
62b1f,62b1f_session2_lista_naming_trial086_pocket.wav,2,a,naming,86,pocket,-1,no_resp,NA,Jan 23 2023 12:39:57,Agnieszka,1
62b1f,62b1f_session2_lista_naming_trial087_tiger.wav,2,a,naming,87,tiger,1053,correct,NA,Jan 23 2023 12:40:04,Agnieszka,1
62b1f,62b1f_session2_lista_naming_trial088_basket.wav,2,a,naming,88,basket,980,correct,NA,Jan 23 2023 12:40:12,Agnieszka,1
62b1f,62b1f_session2_lista_naming_trial089_koala.wav,2,a,naming,89,koala,1075,correct,NA,Jan 23 2023 12:40:19,Agnieszka,1
62b1f,62b1f_session2_lista_naming_trial090_sun.wav,2,a,naming,90,sun,948,correct,NA,Jan 23 2023 12:40:27,Agnieszka,1
62b1f,62b1f_session2_lista_naming_trial091_dress.wav,2,a,naming,91,dress,2221,correct,NA,Jan 23 2023 12:40:33,Agnieszka,1
62b1f,62b1f_session2_lista_naming_trial092_circle.wav,2,a,naming,92,circle,1094,correct,NA,Jan 23 2023 12:40:39,Agnieszka,1
62b1f,62b1f_session2_lista_naming_trial093_wave.wav,2,a,naming,93,wave,1419,correct,NA,Jan 23 2023 12:40:46,Agnieszka,1
62b1f,62b1f_session2_lista_naming_trial094_compass.wav,2,a,naming,94,compass,1109,correct,NA,Jan 23 2023 12:40:54,Agnieszka,1
62b1f,62b1f_session2_lista_naming_trial095_hat.wav,2,a,naming,95,hat,1034,correct,NA,Jan 23 2023 12:41:00,Agnieszka,1
62b1f,62b1f_session2_lista_naming_trial096_orange.wav,2,a,naming,96,orange,1065,correct,NA,Jan 23 2023 12:41:07,Agnieszka,1
62b1f,62b1f_session2_lista_naming_trial097_drawer.wav,2,a,naming,97,drawer,1138,correct,NA,Jan 23 2023 12:41:14,Agnieszka,1
62b1f,62b1f_session2_lista_naming_trial098_boxer.wav,2,a,naming,98,boxer,1782,correct,NA,Jan 23 2023 12:41:21,Agnieszka,1
62b1f,62b1f_session2_lista_naming_trial099_queen.wav,2,a,naming,99,queen,1021,correct,NA,Jan 23 2023 12:41:29,Agnieszka,1
62b1f,62b1f_session2_lista_naming_trial100_judge.wav,2,a,naming,100,judge,1602,correct,NA,Jan 23 2023 12:41:37,Agnieszka,1
62b1f,62b1f_session2_lista_naming_trial101_avocado.wav,2,a,naming,101,avocado,1113,correct,NA,Jan 23 2023 12:41:44,Agnieszka,1
62b1f,62b1f_session2_lista_naming_trial102_dice.wav,2,a,naming,102,dice,999,correct,NA,Jan 23 2023 12:41:50,Agnieszka,1
62b1f,62b1f_session2_lista_naming_trial103_bone.wav,2,a,naming,103,bone,2189,correct,NA,Jan 23 2023 12:41:57,Agnieszka,1
62b1f,62b1f_session2_lista_naming_trial104_bell.wav,2,a,naming,104,bell,1716,correct,NA,Jan 23 2023 12:42:06,Agnieszka,1
62b1f,62b1f_session2_lista_naming_trial105_kiwi.wav,2,a,naming,105,kiwi,1299,correct,NA,Jan 23 2023 12:42:13,Agnieszka,1
62b1f,62b1f_session2_lista_naming_trial106_medal.wav,2,a,naming,106,medal,1637,correct,NA,Jan 23 2023 12:42:19,Agnieszka,1
62b1f,62b1f_session2_lista_naming_trial107_cherry.wav,2,a,naming,107,cherry,1378,correct,NA,Jan 23 2023 12:42:27,Agnieszka,1
62b1f,62b1f_session2_lista_naming_trial108_gym.wav,2,a,naming,108,gym,1438,correct,NA,Jan 23 2023 12:42:34,Agnieszka,1
62b1f,62b1f_session2_lista_naming_trial109_butterfly.wav,2,a,naming,109,butterfly,1334,correct,NA,Jan 23 2023 12:42:43,Agnieszka,1
62b1f,62b1f_session2_lista_naming_trial110_caterpillar.wav,2,a,naming,110,caterpillar,1154,correct,NA,Jan 23 2023 12:42:50,Agnieszka,1
62b1f,62b1f_session2_lista_naming_trial111_glove.wav,2,a,naming,111,glove,1242,correct,NA,Jan 23 2023 12:42:58,Agnieszka,1
62b1f,62b1f_session2_lista_naming_trial112_sweet.wav,2,a,naming,112,sweet,1122,correct,NA,Jan 23 2023 12:43:05,Agnieszka,1
62b1f,62b1f_session2_lista_naming_trial113_lung.wav,2,a,naming,113,lung,1053,correct,NA,Jan 23 2023 12:43:18,Agnieszka,1
62b1f,62b1f_session2_lista_naming_trial114_tambourine.wav,2,a,naming,114,tambourine,-1,wrong_word,NA,Jan 23 2023 12:43:27,Agnieszka,1
62b1f,62b1f_session2_lista_naming_trial115_soap.wav,2,a,naming,115,soap,1444,correct,NA,Jan 23 2023 12:43:34,Agnieszka,1
62b1f,62b1f_session2_lista_naming_trial116_potato.wav,2,a,naming,116,potato,1665,correct,NA,Jan 23 2023 12:43:43,Agnieszka,1
62b1f,62b1f_session2_lista_naming_trial117_fairy.wav,2,a,naming,117,fairy,1334,correct,NA,Jan 23 2023 12:43:51,Agnieszka,1
62b1f,62b1f_session2_lista_naming_trial118_tomato.wav,2,a,naming,118,tomato,1116,correct,NA,Jan 23 2023 12:43:59,Agnieszka,1
62b1f,62b1f_session2_lista_naming_trial119_triangle.wav,2,a,naming,119,triangle,904,correct,NA,Jan 23 2023 12:44:09,Agnieszka,1
62b1f,62b1f_session2_lista_naming_trial120_beak.wav,2,a,naming,120,beak,1084,correct,NA,Jan 23 2023 12:44:15,Agnieszka,1
62b1f,62b1f_session2_lista_naming_trial121_flower.wav,2,a,naming,121,flower,1340,correct,NA,Jan 23 2023 12:44:23,Agnieszka,1
62b1f,62b1f_session2_lista_naming_trial122_cork.wav,2,a,naming,122,cork,-1,uncertain,NA,Jan 23 2023 12:44:37,Agnieszka,1
62b1f,62b1f_session2_lista_naming_trial123_submarine.wav,2,a,naming,123,submarine,-1,wrong_word,NA,Jan 23 2023 12:44:44,Agnieszka,1
62b1f,62b1f_session2_lista_naming_trial124_rabbit.wav,2,a,naming,124,rabbit,1902,correct,NA,Jan 23 2023 12:44:50,Agnieszka,1
62b1f,62b1f_session2_lista_naming_trial125_puppet.wav,2,a,naming,125,puppet,-1,wrong_word,NA,Jan 23 2023 12:45:02,Agnieszka,1
62b1f,62b1f_session2_lista_naming_trial126_squirrel.wav,2,a,naming,126,squirrel,-1,uncertain,starts with the previous word ,Jan 23 2023 12:45:37,Agnieszka,1
62b1f,62b1f_session2_lista_naming_trial127_curtain.wav,2,a,naming,127,curtain,1157,correct,NA,Jan 23 2023 12:45:46,Agnieszka,1
62b1f,62b1f_session2_lista_naming_trial128_flipper.wav,2,a,naming,128,flipper,1179,correct,NA,Jan 23 2023 12:45:53,Agnieszka,1
62b1f,62b1f_session2_lista_naming_trial129_dummy.wav,2,a,naming,129,dummy,2031,correct,NA,Jan 23 2023 12:46:00,Agnieszka,1
62b1f,62b1f_session2_lista_naming_trial130_limo.wav,2,a,naming,130,limo,929,correct,NA,Jan 23 2023 12:46:10,Agnieszka,1
62b1f,62b1f_session2_lista_naming_trial131_elbow.wav,2,a,naming,131,elbow,1150,correct,NA,Jan 23 2023 12:46:18,Agnieszka,1
62b1f,62b1f_session2_lista_naming_trial132_flag.wav,2,a,naming,132,flag,1321,correct,NA,Jan 23 2023 12:46:25,Agnieszka,1
62b1f,62b1f_session2_lista_naming_trial133_island.wav,2,a,naming,133,island,1908,correct,NA,Jan 23 2023 12:46:34,Agnieszka,1
62b1f,62b1f_session2_lista_naming_trial134_net.wav,2,a,naming,134,net,1280,correct,NA,Jan 23 2023 12:46:48,Agnieszka,1
62b1f,62b1f_session2_lista_naming_trial135_lamp.wav,2,a,naming,135,lamp,1103,correct,NA,Jan 23 2023 12:46:55,Agnieszka,1
62b1f,62b1f_session2_lista_naming_trial136_pipe.wav,2,a,naming,136,pipe,1053,correct,NA,Jan 23 2023 12:47:02,Agnieszka,1
62b1f,62b1f_session2_lista_naming_trial137_lighthouse.wav,2,a,naming,137,lighthouse,1577,correct,NA,Jan 23 2023 12:47:08,Agnieszka,1
62b1f,62b1f_session2_lista_naming_trial138_bullet.wav,2,a,naming,138,bullet,1476,correct,NA,Jan 23 2023 12:47:16,Agnieszka,1
62b1f,62b1f_session2_lista_naming_trial139_sword.wav,2,a,naming,139,sword,1659,correct,NA,Jan 23 2023 12:47:22,Agnieszka,1
62b1f,62b1f_session2_lista_naming_trial140_saw.wav,2,a,naming,140,saw,1924,correct,NA,Jan 23 2023 12:47:27,Agnieszka,1
62b1f,62b1f_session2_lista_naming_trial141_tattoo.wav,2,a,naming,141,tattoo,2243,correct,NA,Jan 23 2023 12:47:35,Agnieszka,1
62b1f,62b1f_session2_lista_naming_trial142_ear.wav,2,a,naming,142,ear,964,correct,NA,Jan 23 2023 12:47:45,Agnieszka,1
62b1f,62b1f_session2_lista_naming_trial143_nest.wav,2,a,naming,143,nest,1248,correct,NA,Jan 23 2023 12:47:53,Agnieszka,1
62b1f,62b1f_session2_lista_naming_trial144_shoe.wav,2,a,naming,144,shoe,1015,correct,NA,Jan 23 2023 12:48:00,Agnieszka,1
62b1f,62b1f_session2_lista_naming_trial145_olive.wav,2,a,naming,145,olive,-1,no_resp,NA,Jan 23 2023 12:48:06,Agnieszka,1
62b1f,62b1f_session2_lista_naming_trial146_tray.wav,2,a,naming,146,tray,1375,correct,NA,Jan 23 2023 12:48:13,Agnieszka,1
62b1f,62b1f_session2_lista_naming_trial147_shield.wav,2,a,naming,147,shield,1416,correct,NA,Jan 23 2023 12:48:21,Agnieszka,1
62b1f,62b1f_session2_lista_naming_trial148_ghost.wav,2,a,naming,148,ghost,1185,correct,NA,Jan 23 2023 12:48:29,Agnieszka,1
62b1f,62b1f_session2_lista_naming_trial149_battery.wav,2,a,naming,149,battery,1072,correct,NA,Jan 23 2023 12:48:38,Agnieszka,1
62b1f,62b1f_session2_lista_naming_trial150_tractor.wav,2,a,naming,150,tractor,1002,correct,NA,Jan 23 2023 12:48:46,Agnieszka,1
