Participant_ID,File_Name,Session,List,Type_Trial,Trial_Nbr,Target,RT,Response_Trial,Comment,Date_Correction,Assessor_Name,Processed
59997,59997_session2_lista_naming_trial001_crab.wav,2,a,naming,1,crab,979,correct,NA,Feb  1 2023 10:43:37,Agnieszka,1
59997,59997_session2_lista_naming_trial002_goat.wav,2,a,naming,2,goat,1020,correct,NA,Feb  1 2023 10:43:49,Agnieszka,1
59997,59997_session2_lista_naming_trial003_kitchen.wav,2,a,naming,3,kitchen,922,correct,NA,Feb  1 2023 10:44:01,Agnieszka,1
59997,59997_session2_lista_naming_trial004_saw.wav,2,a,naming,4,saw,1157,correct,NA,Feb  1 2023 10:44:10,Agnieszka,1
59997,59997_session2_lista_naming_trial005_judge.wav,2,a,naming,5,judge,1297,correct,NA,Feb  1 2023 10:44:20,Agnieszka,1
59997,59997_session2_lista_naming_trial006_bib.wav,2,a,naming,6,bib,1928,correct,NA,Feb  1 2023 10:44:37,Agnieszka,1
59997,59997_session2_lista_naming_trial007_bracelet.wav,2,a,naming,7,bracelet,1578,correct,NA,Feb  1 2023 10:45:11,Agnieszka,1
59997,59997_session2_lista_naming_trial008_bottle.wav,2,a,naming,8,bottle,1151,correct,NA,Feb  1 2023 10:45:18,Agnieszka,1
59997,59997_session2_lista_naming_trial009_thumb.wav,2,a,naming,9,thumb,817,correct,NA,Feb  1 2023 10:45:32,Agnieszka,1
59997,59997_session2_lista_naming_trial010_mouth.wav,2,a,naming,10,mouth,918,correct,NA,Feb  1 2023 10:45:40,Agnieszka,1
59997,59997_session2_lista_naming_trial011_carrot.wav,2,a,naming,11,carrot,791,correct,NA,Feb  1 2023 10:45:50,Agnieszka,1
59997,59997_session2_lista_naming_trial012_fence.wav,2,a,naming,12,fence,893,correct,NA,Feb  1 2023 10:46:24,Agnieszka,1
59997,59997_session2_lista_naming_trial013_heel.wav,2,a,naming,13,heel,-1,no_resp,NA,Feb  1 2023 10:46:33,Agnieszka,1
59997,59997_session2_lista_naming_trial014_zebra.wav,2,a,naming,14,zebra,1476,correct,NA,Feb  1 2023 10:46:43,Agnieszka,1
59997,59997_session2_lista_naming_trial015_suit.wav,2,a,naming,15,suit,877,correct,NA,Feb  1 2023 10:46:52,Agnieszka,1
59997,59997_session2_lista_naming_trial016_mountain.wav,2,a,naming,16,mountain,1167,correct,NA,Feb  1 2023 10:47:04,Agnieszka,1
59997,59997_session2_lista_naming_trial017_knife.wav,2,a,naming,17,knife,880,correct,NA,Feb  1 2023 10:47:11,Agnieszka,1
59997,59997_session2_lista_naming_trial018_bear.wav,2,a,naming,18,bear,954,correct,NA,Feb  1 2023 10:47:19,Agnieszka,1
59997,59997_session2_lista_naming_trial019_wheelbarrow.wav,2,a,naming,19,wheelbarrow,982,correct,NA,Feb  1 2023 10:47:25,Agnieszka,1
59997,59997_session2_lista_naming_trial020_butterfly.wav,2,a,naming,20,butterfly,823,correct,NA,Feb  1 2023 10:47:34,Agnieszka,1
59997,59997_session2_lista_naming_trial021_comb.wav,2,a,naming,21,comb,1087,correct,NA,Feb  1 2023 10:47:42,Agnieszka,1
59997,59997_session2_lista_naming_trial022_rhino.wav,2,a,naming,22,rhino,1514,correct,NA,Feb  1 2023 10:47:49,Agnieszka,1
59997,59997_session2_lista_naming_trial023_swan.wav,2,a,naming,23,swan,1517,correct,NA,Feb  1 2023 10:48:01,Agnieszka,1
59997,59997_session2_lista_naming_trial024_limo.wav,2,a,naming,24,limo,918,correct,NA,Feb  1 2023 10:48:13,Agnieszka,1
59997,59997_session2_lista_naming_trial025_onion.wav,2,a,naming,25,onion,1979,correct,NA,Feb  1 2023 10:48:23,Agnieszka,1
59997,59997_session2_lista_naming_trial026_tambourine.wav,2,a,naming,26,tambourine,-1,wrong_word,NA,Feb  1 2023 10:48:54,Agnieszka,1
59997,59997_session2_lista_naming_trial027_pepper.wav,2,a,naming,27,pepper,782,correct,NA,Feb  1 2023 10:49:01,Agnieszka,1
59997,59997_session2_lista_naming_trial028_peg.wav,2,a,naming,28,peg,1731,correct,NA,Feb  1 2023 10:49:09,Agnieszka,1
59997,59997_session2_lista_naming_trial029_hippo.wav,2,a,naming,29,hippo,1667,correct,NA,Feb  1 2023 10:49:16,Agnieszka,1
59997,59997_session2_lista_naming_trial030_arrow.wav,2,a,naming,30,arrow,887,correct,NA,Feb  1 2023 10:49:27,Agnieszka,1
59997,59997_session2_lista_naming_trial031_lung.wav,2,a,naming,31,lung,1345,correct,NA,Feb  1 2023 10:49:36,Agnieszka,1
59997,59997_session2_lista_naming_trial032_kiwi.wav,2,a,naming,32,kiwi,900,correct,NA,Feb  1 2023 10:49:56,Agnieszka,1
59997,59997_session2_lista_naming_trial033_suitcase.wav,2,a,naming,33,suitcase,1218,correct,NA,Feb  1 2023 10:50:03,Agnieszka,1
59997,59997_session2_lista_naming_trial034_windmill.wav,2,a,naming,34,windmill,1110,correct,NA,Feb  1 2023 10:50:12,Agnieszka,1
59997,59997_session2_lista_naming_trial035_submarine.wav,2,a,naming,35,submarine,1339,correct,NA,Feb  1 2023 10:50:20,Agnieszka,1
59997,59997_session2_lista_naming_trial036_potato.wav,2,a,naming,36,potato,960,correct,NA,Feb  1 2023 10:50:29,Agnieszka,1
59997,59997_session2_lista_naming_trial037_sun.wav,2,a,naming,37,sun,1087,correct,NA,Feb  1 2023 10:50:42,Agnieszka,1
59997,59997_session2_lista_naming_trial038_gym.wav,2,a,naming,38,gym,1132,correct,NA,Feb  1 2023 10:50:50,Agnieszka,1
59997,59997_session2_lista_naming_trial039_key.wav,2,a,naming,39,key,909,correct,NA,Feb  1 2023 10:50:58,Agnieszka,1
59997,59997_session2_lista_naming_trial040_dummy.wav,2,a,naming,40,dummy,1638,correct,NA,Feb  1 2023 10:51:08,Agnieszka,1
59997,59997_session2_lista_naming_trial041_skirt.wav,2,a,naming,41,skirt,-1,wrong_word,NA,Feb  1 2023 10:51:14,Agnieszka,1
59997,59997_session2_lista_naming_trial042_train.wav,2,a,naming,42,train,1008,correct,NA,Feb  1 2023 10:51:22,Agnieszka,1
59997,59997_session2_lista_naming_trial043_flower.wav,2,a,naming,43,flower,1106,correct,NA,Feb  1 2023 10:51:34,Agnieszka,1
59997,59997_session2_lista_naming_trial044_basket.wav,2,a,naming,44,basket,1434,correct,NA,Feb  1 2023 10:51:41,Agnieszka,1
59997,59997_session2_lista_naming_trial045_rabbit.wav,2,a,naming,45,rabbit,1084,correct,NA,Feb  1 2023 10:51:48,Agnieszka,1
59997,59997_session2_lista_naming_trial046_ghost.wav,2,a,naming,46,ghost,1313,correct,NA,Feb  1 2023 10:51:55,Agnieszka,1
59997,59997_session2_lista_naming_trial047_pear.wav,2,a,naming,47,pear,1129,correct,NA,Feb  1 2023 10:52:02,Agnieszka,1
59997,59997_session2_lista_naming_trial048_caterpillar.wav,2,a,naming,48,caterpillar,2030,correct,NA,Feb  1 2023 10:52:11,Agnieszka,1
59997,59997_session2_lista_naming_trial049_butter.wav,2,a,naming,49,butter,1049,correct,NA,Feb  1 2023 10:52:20,Agnieszka,1
59997,59997_session2_lista_naming_trial050_net.wav,2,a,naming,50,net,903,correct,NA,Feb  1 2023 10:52:31,Agnieszka,1
59997,59997_session2_lista_naming_trial051_boxer.wav,2,a,naming,51,boxer,1269,correct,NA,Feb  1 2023 10:52:38,Agnieszka,1
59997,59997_session2_lista_naming_trial052_teacher.wav,2,a,naming,52,teacher,1587,correct,NA,Feb  1 2023 10:52:45,Agnieszka,1
59997,59997_session2_lista_naming_trial053_doughnut.wav,2,a,naming,53,doughnut,1103,correct,NA,Feb  1 2023 10:52:52,Agnieszka,1
59997,59997_session2_lista_naming_trial054_shower.wav,2,a,naming,54,shower,904,correct,NA,Feb  1 2023 10:52:59,Agnieszka,1
59997,59997_session2_lista_naming_trial055_apple.wav,2,a,naming,55,apple,1272,correct,NA,Feb  1 2023 10:53:09,Agnieszka,1
59997,59997_session2_lista_naming_trial056_drawer.wav,2,a,naming,56,drawer,1393,correct,NA,Feb  1 2023 10:53:17,Agnieszka,1
59997,59997_session2_lista_naming_trial057_bullet.wav,2,a,naming,57,bullet,1992,correct,NA,Feb  1 2023 10:53:24,Agnieszka,1
59997,59997_session2_lista_naming_trial058_magnet.wav,2,a,naming,58,magnet,-1,wrong_word,NA,Feb  1 2023 10:53:32,Agnieszka,1
59997,59997_session2_lista_naming_trial059_compass.wav,2,a,naming,59,compass,1199,correct,NA,Feb  1 2023 10:53:42,Agnieszka,1
59997,59997_session2_lista_naming_trial060_ear.wav,2,a,naming,60,ear,1084,correct,NA,Feb  1 2023 10:53:53,Agnieszka,1
59997,59997_session2_lista_naming_trial061_orange.wav,2,a,naming,61,orange,1673,correct,NA,Feb  1 2023 10:54:01,Agnieszka,1
59997,59997_session2_lista_naming_trial062_dice.wav,2,a,naming,62,dice,1043,correct,NA,Feb  1 2023 10:54:11,Agnieszka,1
59997,59997_session2_lista_naming_trial063_candle.wav,2,a,naming,63,candle,1052,correct,NA,Feb  1 2023 10:54:18,Agnieszka,1
59997,59997_session2_lista_naming_trial064_pipe.wav,2,a,naming,64,pipe,1062,correct,NA,Feb  1 2023 10:54:26,Agnieszka,1
59997,59997_session2_lista_naming_trial065_elbow.wav,2,a,naming,65,elbow,868,correct,NA,Feb  1 2023 10:54:34,Agnieszka,1
59997,59997_session2_lista_naming_trial066_donkey.wav,2,a,naming,66,donkey,1020,correct,NA,Feb  1 2023 10:54:41,Agnieszka,1
59997,59997_session2_lista_naming_trial067_bone.wav,2,a,naming,67,bone,1428,correct,NA,Feb  1 2023 10:54:47,Agnieszka,1
59997,59997_session2_lista_naming_trial068_glove.wav,2,a,naming,68,glove,1444,correct,NA,Feb  1 2023 10:54:58,Agnieszka,1
59997,59997_session2_lista_naming_trial069_book.wav,2,a,naming,69,book,1377,correct,NA,Feb  1 2023 10:55:07,Agnieszka,1
59997,59997_session2_lista_naming_trial070_hat.wav,2,a,naming,70,hat,928,correct,NA,Feb  1 2023 10:55:15,Agnieszka,1
59997,59997_session2_lista_naming_trial071_tomato.wav,2,a,naming,71,tomato,1218,correct,NA,Feb  1 2023 10:55:21,Agnieszka,1
59997,59997_session2_lista_naming_trial072_camel.wav,2,a,naming,72,camel,1310,correct,NA,Feb  1 2023 10:55:29,Agnieszka,1
59997,59997_session2_lista_naming_trial073_pencil.wav,2,a,naming,73,pencil,778,correct,NA,Feb  1 2023 10:55:37,Agnieszka,1
59997,59997_session2_lista_naming_trial074_arm.wav,2,a,naming,74,arm,1062,correct,NA,Feb  1 2023 10:55:48,Agnieszka,1
59997,59997_session2_lista_naming_trial075_whale.wav,2,a,naming,75,whale,-1,no_resp,NA,Feb  1 2023 10:55:54,Agnieszka,1
59997,59997_session2_lista_naming_trial076_pocket.wav,2,a,naming,76,pocket,1253,correct,NA,Feb  1 2023 10:56:04,Agnieszka,1
59997,59997_session2_lista_naming_trial077_beak.wav,2,a,naming,77,beak,1485,correct,NA,Feb  1 2023 10:56:12,Agnieszka,1
59997,59997_session2_lista_naming_trial078_sweet.wav,2,a,naming,78,sweet,1176,correct,NA,Feb  1 2023 10:56:22,Agnieszka,1
59997,59997_session2_lista_naming_trial079_avocado.wav,2,a,naming,79,avocado,1103,correct,NA,Feb  1 2023 10:56:29,Agnieszka,1
59997,59997_session2_lista_naming_trial080_owl.wav,2,a,naming,80,owl,1763,correct,NA,Feb  1 2023 10:56:36,Agnieszka,1
59997,59997_session2_lista_naming_trial081_castle.wav,2,a,naming,81,castle,855,correct,NA,Feb  1 2023 10:56:45,Agnieszka,1
59997,59997_session2_lista_naming_trial082_fairy.wav,2,a,naming,82,fairy,1982,correct,NA,Feb  1 2023 10:56:58,Agnieszka,1
59997,59997_session2_lista_naming_trial083_circle.wav,2,a,naming,83,circle,864,correct,NA,Feb  1 2023 10:57:08,Agnieszka,1
59997,59997_session2_lista_naming_trial084_nest.wav,2,a,naming,84,nest,1024,correct,NA,Feb  1 2023 10:57:17,Agnieszka,1
59997,59997_session2_lista_naming_trial085_soap.wav,2,a,naming,85,soap,-1,no_resp,NA,Feb  1 2023 10:57:23,Agnieszka,1
59997,59997_session2_lista_naming_trial086_tongue.wav,2,a,naming,86,tongue,-1,wrong_word,NA,Feb  1 2023 10:57:29,Agnieszka,1
59997,59997_session2_lista_naming_trial087_tray.wav,2,a,naming,87,tray,1029,correct,NA,Feb  1 2023 10:57:37,Agnieszka,1
59997,59997_session2_lista_naming_trial088_doctor.wav,2,a,naming,88,doctor,1485,correct,NA,Feb  1 2023 10:57:47,Agnieszka,1
59997,59997_session2_lista_naming_trial089_fridge.wav,2,a,naming,89,fridge,1441,correct,NA,Feb  1 2023 10:57:54,Agnieszka,1
59997,59997_session2_lista_naming_trial090_medal.wav,2,a,naming,90,medal,1922,correct,NA,Feb  1 2023 10:58:00,Agnieszka,1
59997,59997_session2_lista_naming_trial091_rose.wav,2,a,naming,91,rose,915,correct,NA,Feb  1 2023 10:58:08,Agnieszka,1
59997,59997_session2_lista_naming_trial092_tap.wav,2,a,naming,92,tap,1387,correct,NA,Feb  1 2023 10:58:20,Agnieszka,1
59997,59997_session2_lista_naming_trial093_bike.wav,2,a,naming,93,bike,1247,correct,NA,Feb  1 2023 10:58:31,Agnieszka,1
59997,59997_session2_lista_naming_trial094_tractor.wav,2,a,naming,94,tractor,-1,disfluency,NA,Feb  1 2023 10:58:38,Agnieszka,1
59997,59997_session2_lista_naming_trial095_queen.wav,2,a,naming,95,queen,1734,correct,NA,Feb  1 2023 10:58:44,Agnieszka,1
59997,59997_session2_lista_naming_trial096_dress.wav,2,a,naming,96,dress,1877,correct,NA,Feb  1 2023 10:58:53,Agnieszka,1
59997,59997_session2_lista_naming_trial097_scissors.wav,2,a,naming,97,scissors,950,correct,NA,Feb  1 2023 10:58:59,Agnieszka,1
59997,59997_session2_lista_naming_trial098_wave.wav,2,a,naming,98,wave,1747,correct,NA,Feb  1 2023 10:59:09,Agnieszka,1
59997,59997_session2_lista_naming_trial099_cork.wav,2,a,naming,99,cork,982,correct,NA,Feb  1 2023 10:59:23,Agnieszka,1
59997,59997_session2_lista_naming_trial100_drum.wav,2,a,naming,100,drum,778,correct,NA,Feb  1 2023 10:59:33,Agnieszka,1
59997,59997_session2_lista_naming_trial101_triangle.wav,2,a,naming,101,triangle,740,correct,NA,Feb  1 2023 10:59:49,Agnieszka,1
59997,59997_session2_lista_naming_trial102_bell.wav,2,a,naming,102,bell,922,correct,NA,Feb  1 2023 10:59:56,Agnieszka,1
59997,59997_session2_lista_naming_trial103_sausage.wav,2,a,naming,103,sausage,1247,correct,NA,Feb  1 2023 11:00:03,Agnieszka,1
59997,59997_session2_lista_naming_trial104_tie.wav,2,a,naming,104,tie,1227,correct,NA,Feb  1 2023 11:00:11,Agnieszka,1
59997,59997_session2_lista_naming_trial105_tree.wav,2,a,naming,105,tree,794,correct,NA,Feb  1 2023 11:00:19,Agnieszka,1
59997,59997_session2_lista_naming_trial106_zip.wav,2,a,naming,106,zip,1285,correct,NA,Feb  1 2023 11:00:31,Agnieszka,1
59997,59997_session2_lista_naming_trial107_jellyfish.wav,2,a,naming,107,jellyfish,-1,no_resp,NA,Feb  1 2023 11:00:36,Agnieszka,1
59997,59997_session2_lista_naming_trial108_wall.wav,2,a,naming,108,wall,1565,correct,NA,Feb  1 2023 11:00:45,Agnieszka,1
59997,59997_session2_lista_naming_trial109_robot.wav,2,a,naming,109,robot,775,correct,NA,Feb  1 2023 11:00:54,Agnieszka,1
59997,59997_session2_lista_naming_trial110_tunnel.wav,2,a,naming,110,tunnel,1568,correct,NA,Feb  1 2023 11:01:01,Agnieszka,1
59997,59997_session2_lista_naming_trial111_curtain.wav,2,a,naming,111,curtain,1305,correct,NA,Feb  1 2023 11:01:11,Agnieszka,1
59997,59997_session2_lista_naming_trial112_helicopter.wav,2,a,naming,112,helicopter,1734,correct,NA,Feb  1 2023 11:01:23,Agnieszka,1
59997,59997_session2_lista_naming_trial113_lawnmower.wav,2,a,naming,113,lawnmower,1629,correct,NA,Feb  1 2023 11:01:29,Agnieszka,1
59997,59997_session2_lista_naming_trial114_rocket.wav,2,a,naming,114,rocket,1081,correct,NA,Feb  1 2023 11:01:37,Agnieszka,1
59997,59997_session2_lista_naming_trial115_lighter.wav,2,a,naming,115,lighter,1501,correct,NA,Feb  1 2023 11:01:52,Agnieszka,1
59997,59997_session2_lista_naming_trial116_puppet.wav,2,a,naming,116,puppet,1310,correct,NA,Feb  1 2023 11:02:00,Agnieszka,1
59997,59997_session2_lista_naming_trial117_mermaid.wav,2,a,naming,117,mermaid,1479,correct,NA,Feb  1 2023 11:02:15,Agnieszka,1
59997,59997_session2_lista_naming_trial118_fireplace.wav,2,a,naming,118,fireplace,1231,correct,NA,Feb  1 2023 11:02:35,Agnieszka,1
59997,59997_session2_lista_naming_trial119_tiger.wav,2,a,naming,119,tiger,1597,correct,NA,Feb  1 2023 11:04:03,Agnieszka,1
59997,59997_session2_lista_naming_trial120_kite.wav,2,a,naming,120,kite,1559,correct,NA,Feb  1 2023 11:04:10,Agnieszka,1
59997,59997_session2_lista_naming_trial121_computer.wav,2,a,naming,121,computer,1040,correct,NA,Feb  1 2023 11:06:29,Agnieszka,1
59997,59997_session2_lista_naming_trial122_shoe.wav,2,a,naming,122,shoe,-1,disfluency,NA,Feb  1 2023 11:07:05,Agnieszka,1
59997,59997_session2_lista_naming_trial123_map.wav,2,a,naming,123,map,1406,correct,NA,Feb  1 2023 11:07:12,Agnieszka,1
59997,59997_session2_lista_naming_trial124_squirrel.wav,2,a,naming,124,squirrel,1333,correct,NA,Feb  1 2023 11:07:21,Agnieszka,1
59997,59997_session2_lista_naming_trial125_sword.wav,2,a,naming,125,sword,989,correct,NA,Feb  1 2023 11:07:36,Agnieszka,1
59997,59997_session2_lista_naming_trial126_bull.wav,2,a,naming,126,bull,1743,correct,NA,Feb  1 2023 11:09:13,Agnieszka,1
59997,59997_session2_lista_naming_trial127_koala.wav,2,a,naming,127,koala,1524,correct,NA,Feb  1 2023 11:09:39,Agnieszka,1
59997,59997_session2_lista_naming_trial128_coat.wav,2,a,naming,128,coat,1463,correct,NA,Feb  1 2023 11:09:55,Agnieszka,1
59997,59997_session2_lista_naming_trial129_cherry.wav,2,a,naming,129,cherry,1333,correct,NA,Feb  1 2023 11:10:13,Agnieszka,1
59997,59997_session2_lista_naming_trial130_ruler.wav,2,a,naming,130,ruler,2205,correct,NA,Feb  1 2023 11:10:23,Agnieszka,1
59997,59997_session2_lista_naming_trial131_shield.wav,2,a,naming,131,shield,2014,correct,NA,Feb  1 2023 11:11:05,Agnieszka,1
59997,59997_session2_lista_naming_trial132_star.wav,2,a,naming,132,star,925,correct,NA,Feb  1 2023 11:11:14,Agnieszka,1
59997,59997_session2_lista_naming_trial133_kangaroo.wav,2,a,naming,133,kangaroo,1919,correct,NA,Feb  1 2023 11:11:38,Agnieszka,1
59997,59997_session2_lista_naming_trial134_bus.wav,2,a,naming,134,bus,1833,correct,NA,Feb  1 2023 11:12:21,Agnieszka,1
59997,59997_session2_lista_naming_trial135_plumber.wav,2,a,naming,135,plumber,-1,no_resp,NA,Feb  1 2023 11:12:28,Agnieszka,1
59997,59997_session2_lista_naming_trial136_clown.wav,2,a,naming,136,clown,1559,correct,NA,Feb  1 2023 11:12:35,Agnieszka,1
59997,59997_session2_lista_naming_trial137_pineapple.wav,2,a,naming,137,pineapple,1033,correct,NA,Feb  1 2023 11:12:41,Agnieszka,1
59997,59997_session2_lista_naming_trial138_snake.wav,2,a,naming,138,snake,1422,correct,NA,Feb  1 2023 11:12:47,Agnieszka,1
59997,59997_session2_lista_naming_trial139_olive.wav,2,a,naming,139,olive,1635,correct,NA,Feb  1 2023 11:12:53,Agnieszka,1
59997,59997_session2_lista_naming_trial140_island.wav,2,a,naming,140,island,1161,correct,NA,Feb  1 2023 11:13:04,Agnieszka,1
59997,59997_session2_lista_naming_trial141_battery.wav,2,a,naming,141,battery,1692,correct,NA,Feb  1 2023 11:13:11,Agnieszka,1
59997,59997_session2_lista_naming_trial142_lamp.wav,2,a,naming,142,lamp,855,correct,NA,Feb  1 2023 11:13:18,Agnieszka,1
59997,59997_session2_lista_naming_trial143_fork.wav,2,a,naming,143,fork,711,correct,NA,Feb  1 2023 11:13:34,Agnieszka,1
59997,59997_session2_lista_naming_trial144_wing.wav,2,a,naming,144,wing,1899,correct,NA,Feb  1 2023 11:13:40,Agnieszka,1
59997,59997_session2_lista_naming_trial145_tattoo.wav,2,a,naming,145,tattoo,1540,correct,NA,Feb  1 2023 11:13:51,Agnieszka,1
59997,59997_session2_lista_naming_trial146_bench.wav,2,a,naming,146,bench,804,correct,NA,Feb  1 2023 11:13:59,Agnieszka,1
59997,59997_session2_lista_naming_trial147_fox.wav,2,a,naming,147,fox,2043,correct,NA,Feb  1 2023 11:14:05,Agnieszka,1
59997,59997_session2_lista_naming_trial148_flipper.wav,2,a,naming,148,flipper,-1,no_resp,NA,Feb  1 2023 11:14:13,Agnieszka,1
59997,59997_session2_lista_naming_trial149_lighthouse.wav,2,a,naming,149,lighthouse,1409,correct,NA,Feb  1 2023 11:14:20,Agnieszka,1
59997,59997_session2_lista_naming_trial150_flag.wav,2,a,naming,150,flag,791,correct,NA,Feb  1 2023 11:14:32,Agnieszka,1
