Participant_ID,File_Name,Session,List,Type_Trial,Trial_Nbr,Target,RT,Response_Trial,Comment,Date_Correction,Assessor_Name,Processed
5e85f,5e85f_session2_lista_naming_trial001_caterpillar.wav,2,a,naming,1,caterpillar,794,correct,NA,Jan  5 2023 17:43:51,Agnieszka,1
5e85f,5e85f_session2_lista_naming_trial002_knife.wav,2,a,naming,2,knife,775,correct,NA,Jan  5 2023 17:43:58,Agnieszka,1
5e85f,5e85f_session2_lista_naming_trial003_peg.wav,2,a,naming,3,peg,-1,wrong_word,NA,Jan  5 2023 17:44:09,Agnieszka,1
5e85f,5e85f_session2_lista_naming_trial004_star.wav,2,a,naming,4,star,689,correct,NA,Jan  5 2023 17:44:18,Agnieszka,1
5e85f,5e85f_session2_lista_naming_trial005_pineapple.wav,2,a,naming,5,pineapple,680,correct,NA,Jan  5 2023 17:44:25,Agnieszka,1
5e85f,5e85f_session2_lista_naming_trial006_triangle.wav,2,a,naming,6,triangle,708,correct,NA,Jan  5 2023 17:44:35,Agnieszka,1
5e85f,5e85f_session2_lista_naming_trial007_hippo.wav,2,a,naming,7,hippo,925,correct,NA,Jan  5 2023 17:44:44,Agnieszka,1
5e85f,5e85f_session2_lista_naming_trial008_tambourine.wav,2,a,naming,8,tambourine,775,correct,NA,Jan  5 2023 17:44:53,Agnieszka,1
5e85f,5e85f_session2_lista_naming_trial009_castle.wav,2,a,naming,9,castle,724,correct,NA,Jan  5 2023 17:45:16,Agnieszka,1
5e85f,5e85f_session2_lista_naming_trial010_suit.wav,2,a,naming,10,suit,715,correct,NA,Jan  5 2023 17:45:23,Agnieszka,1
5e85f,5e85f_session2_lista_naming_trial011_onion.wav,2,a,naming,11,onion,807,correct,NA,Jan  5 2023 17:45:31,Agnieszka,1
5e85f,5e85f_session2_lista_naming_trial012_lighter.wav,2,a,naming,12,lighter,976,correct,NA,Jan  5 2023 17:45:41,Agnieszka,1
5e85f,5e85f_session2_lista_naming_trial013_butter.wav,2,a,naming,13,butter,998,correct,NA,Jan  5 2023 17:45:48,Agnieszka,1
5e85f,5e85f_session2_lista_naming_trial014_koala.wav,2,a,naming,14,koala,852,correct,NA,Jan  5 2023 17:45:55,Agnieszka,1
5e85f,5e85f_session2_lista_naming_trial015_arm.wav,2,a,naming,15,arm,855,correct,NA,Jan  5 2023 17:46:05,Agnieszka,1
5e85f,5e85f_session2_lista_naming_trial016_fairy.wav,2,a,naming,16,fairy,778,correct,NA,Jan  5 2023 17:46:15,Agnieszka,1
5e85f,5e85f_session2_lista_naming_trial017_beak.wav,2,a,naming,17,beak,813,correct,NA,Jan  5 2023 17:46:23,Agnieszka,1
5e85f,5e85f_session2_lista_naming_trial018_carrot.wav,2,a,naming,18,carrot,734,correct,NA,Jan  5 2023 17:46:33,Agnieszka,1
5e85f,5e85f_session2_lista_naming_trial019_goat.wav,2,a,naming,19,goat,957,correct,NA,Jan  5 2023 17:46:40,Agnieszka,1
5e85f,5e85f_session2_lista_naming_trial020_rose.wav,2,a,naming,20,rose,756,correct,NA,Jan  5 2023 17:46:48,Agnieszka,1
5e85f,5e85f_session2_lista_naming_trial021_net.wav,2,a,naming,21,net,1087,correct,NA,Jan  5 2023 17:46:55,Agnieszka,1
5e85f,5e85f_session2_lista_naming_trial022_glove.wav,2,a,naming,22,glove,829,correct,speaker not sure about the word (but first attempt correct),Jan  5 2023 17:47:24,Agnieszka,1
5e85f,5e85f_session2_lista_naming_trial023_thumb.wav,2,a,naming,23,thumb,954,correct,NA,Jan  5 2023 17:47:36,Agnieszka,1
5e85f,5e85f_session2_lista_naming_trial024_lamp.wav,2,a,naming,24,lamp,-1,wrong_word,NA,Jan  5 2023 17:47:43,Agnieszka,1
5e85f,5e85f_session2_lista_naming_trial025_circle.wav,2,a,naming,25,circle,762,correct,NA,Jan  5 2023 17:47:51,Agnieszka,1
5e85f,5e85f_session2_lista_naming_trial026_clown.wav,2,a,naming,26,clown,1059,correct,NA,Jan  5 2023 17:48:01,Agnieszka,1
5e85f,5e85f_session2_lista_naming_trial027_doughnut.wav,2,a,naming,27,doughnut,871,correct,NA,Jan  5 2023 17:48:09,Agnieszka,1
5e85f,5e85f_session2_lista_naming_trial028_bottle.wav,2,a,naming,28,bottle,922,correct,'bottle... glass',Jan  5 2023 17:48:22,Agnieszka,1
5e85f,5e85f_session2_lista_naming_trial029_boxer.wav,2,a,naming,29,boxer,903,correct,NA,Jan  5 2023 17:48:30,Agnieszka,1
5e85f,5e85f_session2_lista_naming_trial030_rhino.wav,2,a,naming,30,rhino,969,correct,NA,Jan  5 2023 17:48:39,Agnieszka,1
5e85f,5e85f_session2_lista_naming_trial031_limo.wav,2,a,naming,31,limo,938,correct,NA,Jan  5 2023 17:48:48,Agnieszka,1
5e85f,5e85f_session2_lista_naming_trial032_fence.wav,2,a,naming,32,fence,791,correct,NA,Jan  5 2023 17:48:57,Agnieszka,1
5e85f,5e85f_session2_lista_naming_trial033_suitcase.wav,2,a,naming,33,suitcase,797,correct,'suitcase... or luggage',Jan  5 2023 17:49:15,Agnieszka,1
5e85f,5e85f_session2_lista_naming_trial034_key.wav,2,a,naming,34,key,810,correct,NA,Jan  5 2023 17:49:22,Agnieszka,1
5e85f,5e85f_session2_lista_naming_trial035_dice.wav,2,a,naming,35,dice,1699,correct,NA,Jan  5 2023 17:49:52,Agnieszka,1
5e85f,5e85f_session2_lista_naming_trial036_robot.wav,2,a,naming,36,robot,887,correct,NA,Jan  5 2023 17:50:01,Agnieszka,1
5e85f,5e85f_session2_lista_naming_trial037_pencil.wav,2,a,naming,37,pencil,737,correct,NA,Jan  5 2023 17:50:09,Agnieszka,1
5e85f,5e85f_session2_lista_naming_trial038_zip.wav,2,a,naming,38,zip,-1,wrong_word,NA,Jan  5 2023 17:50:17,Agnieszka,1
5e85f,5e85f_session2_lista_naming_trial039_zebra.wav,2,a,naming,39,zebra,909,correct,NA,Jan  5 2023 17:50:25,Agnieszka,1
5e85f,5e85f_session2_lista_naming_trial040_rocket.wav,2,a,naming,40,rocket,2024,correct,NA,Jan  5 2023 17:50:31,Agnieszka,1
5e85f,5e85f_session2_lista_naming_trial041_tiger.wav,2,a,naming,41,tiger,750,correct,NA,Jan  5 2023 17:50:38,Agnieszka,1
5e85f,5e85f_session2_lista_naming_trial042_puppet.wav,2,a,naming,42,puppet,2180,correct,NA,Jan  5 2023 17:50:47,Agnieszka,1
5e85f,5e85f_session2_lista_naming_trial043_candle.wav,2,a,naming,43,candle,1148,correct,NA,Jan  5 2023 17:50:58,Agnieszka,1
5e85f,5e85f_session2_lista_naming_trial044_fireplace.wav,2,a,naming,44,fireplace,1129,correct,NA,Jan  5 2023 17:51:07,Agnieszka,1
5e85f,5e85f_session2_lista_naming_trial045_bull.wav,2,a,naming,45,bull,1896,correct,NA,Jan  5 2023 17:51:12,Agnieszka,1
5e85f,5e85f_session2_lista_naming_trial046_elbow.wav,2,a,naming,46,elbow,1253,correct,NA,Jan  5 2023 17:51:22,Agnieszka,1
5e85f,5e85f_session2_lista_naming_trial047_ruler.wav,2,a,naming,47,ruler,1170,correct,NA,Jan  5 2023 17:51:30,Agnieszka,1
5e85f,5e85f_session2_lista_naming_trial048_drum.wav,2,a,naming,48,drum,1224,correct,NA,Jan  5 2023 17:51:38,Agnieszka,1
5e85f,5e85f_session2_lista_naming_trial049_tongue.wav,2,a,naming,49,tongue,934,correct,NA,Jan  5 2023 17:51:45,Agnieszka,1
5e85f,5e85f_session2_lista_naming_trial050_tap.wav,2,a,naming,50,tap,-1,wrong_word,NA,Jan  5 2023 17:51:52,Agnieszka,1
5e85f,5e85f_session2_lista_naming_trial051_curtain.wav,2,a,naming,51,curtain,1224,correct,NA,Jan  5 2023 17:51:59,Agnieszka,1
5e85f,5e85f_session2_lista_naming_trial052_tie.wav,2,a,naming,52,tie,858,correct,NA,Jan  5 2023 17:52:08,Agnieszka,1
5e85f,5e85f_session2_lista_naming_trial053_fork.wav,2,a,naming,53,fork,708,correct,NA,Jan  5 2023 17:52:16,Agnieszka,1
5e85f,5e85f_session2_lista_naming_trial054_kite.wav,2,a,naming,54,kite,954,correct,NA,Jan  5 2023 17:52:24,Agnieszka,1
5e85f,5e85f_session2_lista_naming_trial055_medal.wav,2,a,naming,55,medal,817,correct,NA,Jan  5 2023 17:52:32,Agnieszka,1
5e85f,5e85f_session2_lista_naming_trial056_tunnel.wav,2,a,naming,56,tunnel,864,correct,NA,Jan  5 2023 17:52:40,Agnieszka,1
5e85f,5e85f_session2_lista_naming_trial057_avocado.wav,2,a,naming,57,avocado,1383,correct,NA,Jan  5 2023 17:52:53,Agnieszka,1
5e85f,5e85f_session2_lista_naming_trial058_cork.wav,2,a,naming,58,cork,1035,correct,NA,Jan  5 2023 17:53:02,Agnieszka,1
5e85f,5e85f_session2_lista_naming_trial059_wing.wav,2,a,naming,59,wing,1014,correct,NA,Jan  5 2023 17:53:13,Agnieszka,1
5e85f,5e85f_session2_lista_naming_trial060_squirrel.wav,2,a,naming,60,squirrel,-1,wrong_word,NA,Jan  5 2023 17:53:20,Agnieszka,1
5e85f,5e85f_session2_lista_naming_trial061_submarine.wav,2,a,naming,61,submarine,-1,wrong_word,NA,Jan  5 2023 17:53:30,Agnieszka,1
5e85f,5e85f_session2_lista_naming_trial062_pipe.wav,2,a,naming,62,pipe,1438,correct,says 'no' at the beginning of the trial,Jan  5 2023 17:54:17,Agnieszka,1
5e85f,5e85f_session2_lista_naming_trial063_olive.wav,2,a,naming,63,olive,832,correct,NA,Jan  5 2023 17:54:26,Agnieszka,1
5e85f,5e85f_session2_lista_naming_trial064_nest.wav,2,a,naming,64,nest,957,correct,NA,Jan  5 2023 17:54:34,Agnieszka,1
5e85f,5e85f_session2_lista_naming_trial065_bear.wav,2,a,naming,65,bear,883,correct,NA,Jan  5 2023 17:54:42,Agnieszka,1
5e85f,5e85f_session2_lista_naming_trial066_sausage.wav,2,a,naming,66,sausage,1145,correct,NA,Jan  5 2023 17:54:54,Agnieszka,1
5e85f,5e85f_session2_lista_naming_trial067_map.wav,2,a,naming,67,map,941,correct,NA,Jan  5 2023 17:55:02,Agnieszka,1
5e85f,5e85f_session2_lista_naming_trial068_shoe.wav,2,a,naming,68,shoe,1285,correct,NA,Jan  5 2023 17:55:09,Agnieszka,1
5e85f,5e85f_session2_lista_naming_trial069_kangaroo.wav,2,a,naming,69,kangaroo,1078,correct,NA,Jan  5 2023 17:55:16,Agnieszka,1
5e85f,5e85f_session2_lista_naming_trial070_basket.wav,2,a,naming,70,basket,976,correct,NA,Jan  5 2023 17:55:24,Agnieszka,1
5e85f,5e85f_session2_lista_naming_trial071_book.wav,2,a,naming,71,book,909,correct,NA,Jan  5 2023 17:55:32,Agnieszka,1
5e85f,5e85f_session2_lista_naming_trial072_windmill.wav,2,a,naming,72,windmill,842,correct,NA,Jan  5 2023 17:55:40,Agnieszka,1
5e85f,5e85f_session2_lista_naming_trial073_teacher.wav,2,a,naming,73,teacher,973,correct,NA,Jan  5 2023 17:55:47,Agnieszka,1
5e85f,5e85f_session2_lista_naming_trial074_helicopter.wav,2,a,naming,74,helicopter,1001,correct,NA,Jan  5 2023 17:55:55,Agnieszka,1
5e85f,5e85f_session2_lista_naming_trial075_cherry.wav,2,a,naming,75,cherry,762,correct,NA,Jan  5 2023 17:56:02,Agnieszka,1
5e85f,5e85f_session2_lista_naming_trial076_magnet.wav,2,a,naming,76,magnet,893,correct,NA,Jan  5 2023 17:56:09,Agnieszka,1
5e85f,5e85f_session2_lista_naming_trial077_camel.wav,2,a,naming,77,camel,938,correct,NA,Jan  5 2023 17:56:15,Agnieszka,1
5e85f,5e85f_session2_lista_naming_trial078_pocket.wav,2,a,naming,78,pocket,906,correct,NA,Jan  5 2023 17:56:22,Agnieszka,1
5e85f,5e85f_session2_lista_naming_trial079_train.wav,2,a,naming,79,train,-1,wrong_word,NA,Jan  5 2023 17:56:32,Agnieszka,1
5e85f,5e85f_session2_lista_naming_trial080_plumber.wav,2,a,naming,80,plumber,1148,correct,NA,Jan  5 2023 17:56:43,Agnieszka,1
5e85f,5e85f_session2_lista_naming_trial081_soap.wav,2,a,naming,81,soap,899,correct,NA,Jan  5 2023 17:56:50,Agnieszka,1
5e85f,5e85f_session2_lista_naming_trial082_orange.wav,2,a,naming,82,orange,1154,correct,NA,Jan  5 2023 17:56:58,Agnieszka,1
5e85f,5e85f_session2_lista_naming_trial083_whale.wav,2,a,naming,83,whale,1106,correct,NA,Jan  5 2023 17:57:11,Agnieszka,1
5e85f,5e85f_session2_lista_naming_trial084_gym.wav,2,a,naming,84,gym,1138,correct,NA,Jan  5 2023 17:57:20,Agnieszka,1
5e85f,5e85f_session2_lista_naming_trial085_doctor.wav,2,a,naming,85,doctor,1173,correct,NA,Jan  5 2023 17:57:26,Agnieszka,1
5e85f,5e85f_session2_lista_naming_trial086_bone.wav,2,a,naming,86,bone,969,correct,NA,Jan  5 2023 17:57:35,Agnieszka,1
5e85f,5e85f_session2_lista_naming_trial087_crab.wav,2,a,naming,87,crab,721,correct,NA,Jan  5 2023 17:57:43,Agnieszka,1
5e85f,5e85f_session2_lista_naming_trial088_hat.wav,2,a,naming,88,hat,-1,wrong_word,NA,Jan  5 2023 17:57:50,Agnieszka,1
5e85f,5e85f_session2_lista_naming_trial089_skirt.wav,2,a,naming,89,skirt,858,correct,NA,Jan  5 2023 17:57:57,Agnieszka,1
5e85f,5e85f_session2_lista_naming_trial090_apple.wav,2,a,naming,90,apple,877,correct,NA,Jan  5 2023 17:58:04,Agnieszka,1
5e85f,5e85f_session2_lista_naming_trial091_bib.wav,2,a,naming,91,bib,915,correct,NA,Jan  5 2023 17:58:12,Agnieszka,1
5e85f,5e85f_session2_lista_naming_trial092_mouth.wav,2,a,naming,92,mouth,1253,correct,NA,Jan  5 2023 17:58:18,Agnieszka,1
5e85f,5e85f_session2_lista_naming_trial093_bike.wav,2,a,naming,93,bike,1043,correct,'bike or bicycle',Jan  5 2023 17:58:36,Agnieszka,1
5e85f,5e85f_session2_lista_naming_trial094_tree.wav,2,a,naming,94,tree,1052,correct,NA,Jan  5 2023 17:58:43,Agnieszka,1
5e85f,5e85f_session2_lista_naming_trial095_rabbit.wav,2,a,naming,95,rabbit,1027,correct,NA,Jan  5 2023 17:58:52,Agnieszka,1
5e85f,5e85f_session2_lista_naming_trial096_kitchen.wav,2,a,naming,96,kitchen,912,correct,NA,Jan  5 2023 17:58:59,Agnieszka,1
5e85f,5e85f_session2_lista_naming_trial097_lighthouse.wav,2,a,naming,97,lighthouse,1004,correct,NA,Jan  5 2023 17:59:07,Agnieszka,1
5e85f,5e85f_session2_lista_naming_trial098_wheelbarrow.wav,2,a,naming,98,wheelbarrow,966,correct,NA,Jan  5 2023 17:59:15,Agnieszka,1
5e85f,5e85f_session2_lista_naming_trial099_drawer.wav,2,a,naming,99,drawer,1065,correct,NA,Jan  5 2023 17:59:23,Agnieszka,1
5e85f,5e85f_session2_lista_naming_trial100_bracelet.wav,2,a,naming,100,bracelet,992,correct,NA,Jan  5 2023 17:59:33,Agnieszka,1
5e85f,5e85f_session2_lista_naming_trial101_flower.wav,2,a,naming,101,flower,985,correct,NA,Jan  5 2023 17:59:41,Agnieszka,1
5e85f,5e85f_session2_lista_naming_trial102_snake.wav,2,a,naming,102,snake,791,correct,NA,Jan  5 2023 17:59:48,Agnieszka,1
5e85f,5e85f_session2_lista_naming_trial103_shower.wav,2,a,naming,103,shower,864,correct,NA,Jan  5 2023 17:59:55,Agnieszka,1
5e85f,5e85f_session2_lista_naming_trial104_coat.wav,2,a,naming,104,coat,896,correct,NA,Jan  5 2023 18:00:03,Agnieszka,1
5e85f,5e85f_session2_lista_naming_trial105_battery.wav,2,a,naming,105,battery,966,correct,NA,Jan  5 2023 18:00:10,Agnieszka,1
5e85f,5e85f_session2_lista_naming_trial106_arrow.wav,2,a,naming,106,arrow,931,correct,NA,Jan  5 2023 18:00:17,Agnieszka,1
5e85f,5e85f_session2_lista_naming_trial107_island.wav,2,a,naming,107,island,1024,correct,NA,Jan  5 2023 18:00:25,Agnieszka,1
5e85f,5e85f_session2_lista_naming_trial108_flag.wav,2,a,naming,108,flag,832,correct,NA,Jan  5 2023 18:00:37,Agnieszka,1
5e85f,5e85f_session2_lista_naming_trial109_tractor.wav,2,a,naming,109,tractor,1046,correct,NA,Jan  5 2023 18:00:49,Agnieszka,1
5e85f,5e85f_session2_lista_naming_trial110_tattoo.wav,2,a,naming,110,tattoo,791,correct,NA,Jan  5 2023 18:01:10,Agnieszka,1
5e85f,5e85f_session2_lista_naming_trial111_wave.wav,2,a,naming,111,wave,1377,correct,NA,Jan  5 2023 18:01:17,Agnieszka,1
5e85f,5e85f_session2_lista_naming_trial112_pepper.wav,2,a,naming,112,pepper,928,correct,NA,Jan  5 2023 18:01:24,Agnieszka,1
5e85f,5e85f_session2_lista_naming_trial113_pear.wav,2,a,naming,113,pear,858,correct,NA,Jan  5 2023 18:01:32,Agnieszka,1
5e85f,5e85f_session2_lista_naming_trial114_queen.wav,2,a,naming,114,queen,817,correct,NA,Jan  5 2023 18:01:39,Agnieszka,1
5e85f,5e85f_session2_lista_naming_trial115_donkey.wav,2,a,naming,115,donkey,1027,correct,NA,Jan  5 2023 18:01:46,Agnieszka,1
5e85f,5e85f_session2_lista_naming_trial116_ghost.wav,2,a,naming,116,ghost,750,correct,NA,Jan  5 2023 18:01:53,Agnieszka,1
5e85f,5e85f_session2_lista_naming_trial117_tomato.wav,2,a,naming,117,tomato,1240,correct,NA,Jan  5 2023 18:02:01,Agnieszka,1
5e85f,5e85f_session2_lista_naming_trial118_jellyfish.wav,2,a,naming,118,jellyfish,887,correct,NA,Jan  5 2023 18:02:08,Agnieszka,1
5e85f,5e85f_session2_lista_naming_trial119_ear.wav,2,a,naming,119,ear,864,correct,NA,Jan  5 2023 18:02:18,Agnieszka,1
5e85f,5e85f_session2_lista_naming_trial120_bullet.wav,2,a,naming,120,bullet,1234,correct,NA,Jan  5 2023 18:02:29,Agnieszka,1
5e85f,5e85f_session2_lista_naming_trial121_computer.wav,2,a,naming,121,computer,960,correct,NA,Jan  5 2023 18:02:51,Agnieszka,1
5e85f,5e85f_session2_lista_naming_trial122_bus.wav,2,a,naming,122,bus,1317,correct,NA,Jan  5 2023 18:02:59,Agnieszka,1
5e85f,5e85f_session2_lista_naming_trial123_saw.wav,2,a,naming,123,saw,-1,wrong_word,NA,Jan  5 2023 18:03:06,Agnieszka,1
5e85f,5e85f_session2_lista_naming_trial124_butterfly.wav,2,a,naming,124,butterfly,896,correct,NA,Jan  5 2023 18:03:13,Agnieszka,1
5e85f,5e85f_session2_lista_naming_trial125_wall.wav,2,a,naming,125,wall,-1,wrong_word,NA,Jan  5 2023 18:03:19,Agnieszka,1
5e85f,5e85f_session2_lista_naming_trial126_sweet.wav,2,a,naming,126,sweet,-1,wrong_word,NA,Jan  5 2023 18:03:28,Agnieszka,1
5e85f,5e85f_session2_lista_naming_trial127_fox.wav,2,a,naming,127,fox,871,correct,NA,Jan  5 2023 18:03:36,Agnieszka,1
5e85f,5e85f_session2_lista_naming_trial128_lawnmower.wav,2,a,naming,128,lawnmower,1294,correct,NA,Jan  5 2023 18:03:43,Agnieszka,1
5e85f,5e85f_session2_lista_naming_trial129_fridge.wav,2,a,naming,129,fridge,1154,correct,NA,Jan  5 2023 18:03:50,Agnieszka,1
5e85f,5e85f_session2_lista_naming_trial130_judge.wav,2,a,naming,130,judge,1052,correct,NA,Jan  5 2023 18:03:56,Agnieszka,1
5e85f,5e85f_session2_lista_naming_trial131_mermaid.wav,2,a,naming,131,mermaid,1004,correct,NA,Jan  5 2023 18:04:04,Agnieszka,1
5e85f,5e85f_session2_lista_naming_trial132_flipper.wav,2,a,naming,132,flipper,1438,uncertain,the initial 'f' seems prolonged,Jan  5 2023 18:04:34,Agnieszka,1
5e85f,5e85f_session2_lista_naming_trial133_compass.wav,2,a,naming,133,compass,-1,no_resp,NA,Jan  5 2023 18:04:43,Agnieszka,1
5e85f,5e85f_session2_lista_naming_trial134_sword.wav,2,a,naming,134,sword,1259,correct,NA,Jan  5 2023 18:04:52,Agnieszka,1
5e85f,5e85f_session2_lista_naming_trial135_bell.wav,2,a,naming,135,bell,1126,correct,NA,Jan  5 2023 18:04:59,Agnieszka,1
5e85f,5e85f_session2_lista_naming_trial136_dummy.wav,2,a,naming,136,dummy,-1,wrong_word,NA,Jan  5 2023 18:05:08,Agnieszka,1
5e85f,5e85f_session2_lista_naming_trial137_lung.wav,2,a,naming,137,lung,1240,correct,NA,Jan  5 2023 18:05:19,Agnieszka,1
5e85f,5e85f_session2_lista_naming_trial138_heel.wav,2,a,naming,138,heel,855,correct,NA,Jan  5 2023 18:05:26,Agnieszka,1
5e85f,5e85f_session2_lista_naming_trial139_bench.wav,2,a,naming,139,bench,922,correct,NA,Jan  5 2023 18:05:35,Agnieszka,1
5e85f,5e85f_session2_lista_naming_trial140_comb.wav,2,a,naming,140,comb,1185,correct,NA,Jan  5 2023 18:05:43,Agnieszka,1
5e85f,5e85f_session2_lista_naming_trial141_kiwi.wav,2,a,naming,141,kiwi,794,correct,NA,Jan  5 2023 18:05:50,Agnieszka,1
5e85f,5e85f_session2_lista_naming_trial142_shield.wav,2,a,naming,142,shield,-1,no_resp,NA,Jan  5 2023 18:05:57,Agnieszka,1
5e85f,5e85f_session2_lista_naming_trial143_swan.wav,2,a,naming,143,swan,848,correct,NA,Jan  5 2023 18:06:04,Agnieszka,1
5e85f,5e85f_session2_lista_naming_trial144_scissors.wav,2,a,naming,144,scissors,766,correct,NA,Jan  5 2023 18:06:12,Agnieszka,1
5e85f,5e85f_session2_lista_naming_trial145_tray.wav,2,a,naming,145,tray,820,correct,NA,Jan  5 2023 18:06:22,Agnieszka,1
5e85f,5e85f_session2_lista_naming_trial146_sun.wav,2,a,naming,146,sun,829,correct,NA,Jan  5 2023 18:06:35,Agnieszka,1
5e85f,5e85f_session2_lista_naming_trial147_dress.wav,2,a,naming,147,dress,839,correct,NA,Jan  5 2023 18:06:43,Agnieszka,1
5e85f,5e85f_session2_lista_naming_trial148_owl.wav,2,a,naming,148,owl,861,correct,NA,Jan  5 2023 18:06:53,Agnieszka,1
5e85f,5e85f_session2_lista_naming_trial149_potato.wav,2,a,naming,149,potato,912,correct,NA,Jan  5 2023 18:07:02,Agnieszka,1
5e85f,5e85f_session2_lista_naming_trial150_mountain.wav,2,a,naming,150,mountain,1164,correct,NA,Jan  5 2023 18:07:09,Agnieszka,1
