Participant_ID,File_Name,Session,List,Type_Trial,Trial_Nbr,Target,RT,Response_Trial,Comment,Date_Correction,Assessor_Name,Processed
62fb7,62fb7_session2_lista_naming_trial001_basket.wav,2,a,naming,1,basket,888,correct,NA,Jan 24 2023 13:30:25,Agnieszka,1
62fb7,62fb7_session2_lista_naming_trial002_fork.wav,2,a,naming,2,fork,764,correct,NA,Jan 24 2023 13:30:35,Agnieszka,1
62fb7,62fb7_session2_lista_naming_trial003_butter.wav,2,a,naming,3,butter,913,correct,NA,Jan 24 2023 13:30:42,Agnieszka,1
62fb7,62fb7_session2_lista_naming_trial004_zip.wav,2,a,naming,4,zip,847,correct,NA,Jan 24 2023 13:30:51,Agnieszka,1
62fb7,62fb7_session2_lista_naming_trial005_soap.wav,2,a,naming,5,soap,1142,correct,NA,Jan 24 2023 13:30:58,Agnieszka,1
62fb7,62fb7_session2_lista_naming_trial006_pear.wav,2,a,naming,6,pear,742,correct,NA,Jan 24 2023 13:31:23,Agnieszka,1
62fb7,62fb7_session2_lista_naming_trial007_rocket.wav,2,a,naming,7,rocket,882,correct,NA,Jan 24 2023 13:31:31,Agnieszka,1
62fb7,62fb7_session2_lista_naming_trial008_flag.wav,2,a,naming,8,flag,913,correct,NA,Jan 24 2023 13:31:44,Agnieszka,1
62fb7,62fb7_session2_lista_naming_trial009_bench.wav,2,a,naming,9,bench,783,correct,NA,Jan 24 2023 13:31:52,Agnieszka,1
62fb7,62fb7_session2_lista_naming_trial010_suit.wav,2,a,naming,10,suit,716,correct,NA,Jan 24 2023 13:32:00,Agnieszka,1
62fb7,62fb7_session2_lista_naming_trial011_fox.wav,2,a,naming,11,fox,843,correct,NA,Jan 24 2023 13:32:14,Agnieszka,1
62fb7,62fb7_session2_lista_naming_trial012_star.wav,2,a,naming,12,star,699,correct,NA,Jan 24 2023 13:32:22,Agnieszka,1
62fb7,62fb7_session2_lista_naming_trial013_wing.wav,2,a,naming,13,wing,-1,wrong_word,NA,Jan 24 2023 13:32:29,Agnieszka,1
62fb7,62fb7_session2_lista_naming_trial014_circle.wav,2,a,naming,14,circle,748,correct,NA,Jan 24 2023 13:33:01,Agnieszka,1
62fb7,62fb7_session2_lista_naming_trial015_donkey.wav,2,a,naming,15,donkey,1047,correct,NA,Jan 24 2023 13:33:08,Agnieszka,1
62fb7,62fb7_session2_lista_naming_trial016_tongue.wav,2,a,naming,16,tongue,901,correct,NA,Jan 24 2023 13:33:17,Agnieszka,1
62fb7,62fb7_session2_lista_naming_trial017_bull.wav,2,a,naming,17,bull,1025,correct,NA,Jan 24 2023 13:33:24,Agnieszka,1
62fb7,62fb7_session2_lista_naming_trial018_shower.wav,2,a,naming,18,shower,831,correct,NA,Jan 24 2023 13:34:56,Agnieszka,1
62fb7,62fb7_session2_lista_naming_trial019_thumb.wav,2,a,naming,19,thumb,727,correct,NA,Jan 24 2023 13:35:11,Agnieszka,1
62fb7,62fb7_session2_lista_naming_trial020_rose.wav,2,a,naming,20,rose,834,correct,NA,Jan 24 2023 13:35:19,Agnieszka,1
62fb7,62fb7_session2_lista_naming_trial021_knife.wav,2,a,naming,21,knife,869,correct,NA,Jan 24 2023 13:35:27,Agnieszka,1
62fb7,62fb7_session2_lista_naming_trial022_avocado.wav,2,a,naming,22,avocado,903,correct,NA,Jan 24 2023 13:35:35,Agnieszka,1
62fb7,62fb7_session2_lista_naming_trial023_puppet.wav,2,a,naming,23,puppet,1238,correct,NA,Jan 24 2023 13:35:41,Agnieszka,1
62fb7,62fb7_session2_lista_naming_trial024_butterfly.wav,2,a,naming,24,butterfly,936,correct,NA,Jan 24 2023 13:35:49,Agnieszka,1
62fb7,62fb7_session2_lista_naming_trial025_beak.wav,2,a,naming,25,beak,863,correct,NA,Jan 24 2023 13:35:56,Agnieszka,1
62fb7,62fb7_session2_lista_naming_trial026_boxer.wav,2,a,naming,26,boxer,780,correct,NA,Jan 24 2023 13:36:03,Agnieszka,1
62fb7,62fb7_session2_lista_naming_trial027_dummy.wav,2,a,naming,27,dummy,989,correct,NA,Jan 24 2023 13:36:09,Agnieszka,1
62fb7,62fb7_session2_lista_naming_trial028_teacher.wav,2,a,naming,28,teacher,834,correct,NA,Jan 24 2023 13:36:17,Agnieszka,1
62fb7,62fb7_session2_lista_naming_trial029_peg.wav,2,a,naming,29,peg,894,correct,NA,Jan 24 2023 13:36:27,Agnieszka,1
62fb7,62fb7_session2_lista_naming_trial030_bib.wav,2,a,naming,30,bib,1095,correct,NA,Jan 24 2023 13:36:34,Agnieszka,1
62fb7,62fb7_session2_lista_naming_trial031_wheelbarrow.wav,2,a,naming,31,wheelbarrow,923,correct,NA,Jan 24 2023 13:36:43,Agnieszka,1
62fb7,62fb7_session2_lista_naming_trial032_clown.wav,2,a,naming,32,clown,1247,correct,NA,Jan 24 2023 13:36:54,Agnieszka,1
62fb7,62fb7_session2_lista_naming_trial033_camel.wav,2,a,naming,33,camel,1050,correct,NA,Jan 24 2023 13:37:01,Agnieszka,1
62fb7,62fb7_session2_lista_naming_trial034_submarine.wav,2,a,naming,34,submarine,1279,correct,NA,Jan 24 2023 13:37:10,Agnieszka,1
62fb7,62fb7_session2_lista_naming_trial035_kangaroo.wav,2,a,naming,35,kangaroo,1234,correct,NA,Jan 24 2023 13:37:16,Agnieszka,1
62fb7,62fb7_session2_lista_naming_trial036_tie.wav,2,a,naming,36,tie,789,correct,NA,Jan 24 2023 13:37:34,Agnieszka,1
62fb7,62fb7_session2_lista_naming_trial037_robot.wav,2,a,naming,37,robot,1009,correct,NA,Jan 24 2023 13:37:41,Agnieszka,1
62fb7,62fb7_session2_lista_naming_trial038_pipe.wav,2,a,naming,38,pipe,812,correct,NA,Jan 24 2023 13:37:49,Agnieszka,1
62fb7,62fb7_session2_lista_naming_trial039_dress.wav,2,a,naming,39,dress,834,correct,NA,Jan 24 2023 13:37:56,Agnieszka,1
62fb7,62fb7_session2_lista_naming_trial040_lawnmower.wav,2,a,naming,40,lawnmower,-1,wrong_word,NA,Jan 24 2023 13:38:03,Agnieszka,1
62fb7,62fb7_session2_lista_naming_trial041_jellyfish.wav,2,a,naming,41,jellyfish,932,correct,NA,Jan 24 2023 13:38:11,Agnieszka,1
62fb7,62fb7_session2_lista_naming_trial042_bear.wav,2,a,naming,42,bear,808,correct,NA,Jan 24 2023 13:38:18,Agnieszka,1
62fb7,62fb7_session2_lista_naming_trial043_comb.wav,2,a,naming,43,comb,805,correct,NA,Jan 24 2023 13:38:25,Agnieszka,1
62fb7,62fb7_session2_lista_naming_trial044_scissors.wav,2,a,naming,44,scissors,800,correct,NA,Jan 24 2023 13:38:32,Agnieszka,1
62fb7,62fb7_session2_lista_naming_trial045_whale.wav,2,a,naming,45,whale,1353,correct,NA,Jan 24 2023 13:38:39,Agnieszka,1
62fb7,62fb7_session2_lista_naming_trial046_shoe.wav,2,a,naming,46,shoe,818,correct,NA,Jan 24 2023 13:38:48,Agnieszka,1
62fb7,62fb7_session2_lista_naming_trial047_swan.wav,2,a,naming,47,swan,748,correct,NA,Jan 24 2023 13:38:59,Agnieszka,1
62fb7,62fb7_session2_lista_naming_trial048_caterpillar.wav,2,a,naming,48,caterpillar,914,correct,NA,Jan 24 2023 13:39:07,Agnieszka,1
62fb7,62fb7_session2_lista_naming_trial049_pepper.wav,2,a,naming,49,pepper,891,correct,NA,Jan 24 2023 13:39:14,Agnieszka,1
62fb7,62fb7_session2_lista_naming_trial050_net.wav,2,a,naming,50,net,1085,correct,NA,Jan 24 2023 13:39:21,Agnieszka,1
62fb7,62fb7_session2_lista_naming_trial051_ghost.wav,2,a,naming,51,ghost,882,correct,NA,Jan 24 2023 13:39:29,Agnieszka,1
62fb7,62fb7_session2_lista_naming_trial052_rhino.wav,2,a,naming,52,rhino,869,correct,NA,Jan 24 2023 13:39:36,Agnieszka,1
62fb7,62fb7_session2_lista_naming_trial053_potato.wav,2,a,naming,53,potato,847,correct,NA,Jan 24 2023 13:39:47,Agnieszka,1
62fb7,62fb7_session2_lista_naming_trial054_heel.wav,2,a,naming,54,heel,974,correct,NA,Jan 24 2023 13:39:55,Agnieszka,1
62fb7,62fb7_session2_lista_naming_trial055_tunnel.wav,2,a,naming,55,tunnel,936,correct,NA,Jan 24 2023 13:40:06,Agnieszka,1
62fb7,62fb7_session2_lista_naming_trial056_pocket.wav,2,a,naming,56,pocket,990,correct,NA,Jan 24 2023 13:40:13,Agnieszka,1
62fb7,62fb7_session2_lista_naming_trial057_candle.wav,2,a,naming,57,candle,871,correct,NA,Jan 24 2023 13:40:23,Agnieszka,1
62fb7,62fb7_session2_lista_naming_trial058_sweet.wav,2,a,naming,58,sweet,751,correct,NA,Jan 24 2023 13:40:31,Agnieszka,1
62fb7,62fb7_session2_lista_naming_trial059_triangle.wav,2,a,naming,59,triangle,936,correct,NA,Jan 24 2023 13:40:37,Agnieszka,1
62fb7,62fb7_session2_lista_naming_trial060_tractor.wav,2,a,naming,60,tractor,1231,correct,NA,Jan 24 2023 13:40:44,Agnieszka,1
62fb7,62fb7_session2_lista_naming_trial061_skirt.wav,2,a,naming,61,skirt,-1,wrong_word,NA,Jan 24 2023 13:40:51,Agnieszka,1
62fb7,62fb7_session2_lista_naming_trial062_bone.wav,2,a,naming,62,bone,831,correct,NA,Jan 24 2023 13:41:01,Agnieszka,1
62fb7,62fb7_session2_lista_naming_trial063_ear.wav,2,a,naming,63,ear,813,correct,NA,Jan 24 2023 13:41:19,Agnieszka,1
62fb7,62fb7_session2_lista_naming_trial064_computer.wav,2,a,naming,64,computer,911,correct,NA,Jan 24 2023 13:41:27,Agnieszka,1
62fb7,62fb7_session2_lista_naming_trial065_orange.wav,2,a,naming,65,orange,913,correct,NA,Jan 24 2023 13:41:34,Agnieszka,1
62fb7,62fb7_session2_lista_naming_trial066_kite.wav,2,a,naming,66,kite,2007,correct,NA,Jan 24 2023 13:41:41,Agnieszka,1
62fb7,62fb7_session2_lista_naming_trial067_plumber.wav,2,a,naming,67,plumber,1120,correct,NA,Jan 24 2023 13:41:51,Agnieszka,1
62fb7,62fb7_session2_lista_naming_trial068_wave.wav,2,a,naming,68,wave,1390,correct,NA,Jan 24 2023 13:41:59,Agnieszka,1
62fb7,62fb7_session2_lista_naming_trial069_coat.wav,2,a,naming,69,coat,1406,correct,NA,Jan 24 2023 13:42:05,Agnieszka,1
62fb7,62fb7_session2_lista_naming_trial070_crab.wav,2,a,naming,70,crab,821,correct,NA,Jan 24 2023 13:42:12,Agnieszka,1
62fb7,62fb7_session2_lista_naming_trial071_mermaid.wav,2,a,naming,71,mermaid,958,correct,NA,Jan 24 2023 13:42:19,Agnieszka,1
62fb7,62fb7_session2_lista_naming_trial072_flipper.wav,2,a,naming,72,flipper,-1,no_resp,NA,Jan 24 2023 13:42:25,Agnieszka,1
62fb7,62fb7_session2_lista_naming_trial073_magnet.wav,2,a,naming,73,magnet,1911,correct,NA,Jan 24 2023 13:42:31,Agnieszka,1
62fb7,62fb7_session2_lista_naming_trial074_lighter.wav,2,a,naming,74,lighter,907,correct,NA,Jan 24 2023 13:42:39,Agnieszka,1
62fb7,62fb7_session2_lista_naming_trial075_nest.wav,2,a,naming,75,nest,901,correct,NA,Jan 24 2023 13:42:46,Agnieszka,1
62fb7,62fb7_session2_lista_naming_trial076_fireplace.wav,2,a,naming,76,fireplace,1037,correct,NA,Jan 24 2023 13:43:02,Agnieszka,1
62fb7,62fb7_session2_lista_naming_trial077_goat.wav,2,a,naming,77,goat,1025,correct,NA,Jan 24 2023 13:43:10,Agnieszka,1
62fb7,62fb7_session2_lista_naming_trial078_key.wav,2,a,naming,78,key,834,correct,NA,Jan 24 2023 13:43:19,Agnieszka,1
62fb7,62fb7_session2_lista_naming_trial079_compass.wav,2,a,naming,79,compass,851,correct,NA,Jan 24 2023 13:43:27,Agnieszka,1
62fb7,62fb7_session2_lista_naming_trial080_tomato.wav,2,a,naming,80,tomato,1012,correct,NA,Jan 24 2023 13:43:34,Agnieszka,1
62fb7,62fb7_session2_lista_naming_trial081_doctor.wav,2,a,naming,81,doctor,1040,correct,NA,Jan 24 2023 13:43:41,Agnieszka,1
62fb7,62fb7_session2_lista_naming_trial082_map.wav,2,a,naming,82,map,923,correct,NA,Jan 24 2023 13:43:48,Agnieszka,1
62fb7,62fb7_session2_lista_naming_trial083_arm.wav,2,a,naming,83,arm,923,correct,NA,Jan 24 2023 13:43:56,Agnieszka,1
62fb7,62fb7_session2_lista_naming_trial084_wall.wav,2,a,naming,84,wall,1128,correct,NA,Jan 24 2023 13:44:05,Agnieszka,1
62fb7,62fb7_session2_lista_naming_trial085_fairy.wav,2,a,naming,85,fairy,-1,disfluency,NA,Jan 24 2023 13:44:12,Agnieszka,1
62fb7,62fb7_session2_lista_naming_trial086_bullet.wav,2,a,naming,86,bullet,873,correct,NA,Jan 24 2023 13:44:20,Agnieszka,1
62fb7,62fb7_session2_lista_naming_trial087_ruler.wav,2,a,naming,87,ruler,1034,correct,NA,Jan 24 2023 13:44:29,Agnieszka,1
62fb7,62fb7_session2_lista_naming_trial088_apple.wav,2,a,naming,88,apple,971,correct,NA,Jan 24 2023 13:44:36,Agnieszka,1
62fb7,62fb7_session2_lista_naming_trial089_cherry.wav,2,a,naming,89,cherry,986,correct,NA,Jan 24 2023 13:44:43,Agnieszka,1
62fb7,62fb7_session2_lista_naming_trial090_bracelet.wav,2,a,naming,90,bracelet,1155,correct,NA,Jan 24 2023 13:44:49,Agnieszka,1
62fb7,62fb7_session2_lista_naming_trial091_onion.wav,2,a,naming,91,onion,872,correct,NA,Jan 24 2023 13:44:57,Agnieszka,1
62fb7,62fb7_session2_lista_naming_trial092_zebra.wav,2,a,naming,92,zebra,901,correct,NA,Jan 24 2023 13:45:20,Agnieszka,1
62fb7,62fb7_session2_lista_naming_trial093_shield.wav,2,a,naming,93,shield,770,correct,NA,Jan 24 2023 13:45:28,Agnieszka,1
62fb7,62fb7_session2_lista_naming_trial094_medal.wav,2,a,naming,94,medal,986,correct,NA,Jan 24 2023 13:45:36,Agnieszka,1
62fb7,62fb7_session2_lista_naming_trial095_judge.wav,2,a,naming,95,judge,1193,correct,NA,Jan 24 2023 13:45:43,Agnieszka,1
62fb7,62fb7_session2_lista_naming_trial096_tiger.wav,2,a,naming,96,tiger,875,correct,NA,Jan 24 2023 13:45:52,Agnieszka,1
62fb7,62fb7_session2_lista_naming_trial097_carrot.wav,2,a,naming,97,carrot,754,correct,NA,Jan 24 2023 13:45:59,Agnieszka,1
62fb7,62fb7_session2_lista_naming_trial098_saw.wav,2,a,naming,98,saw,723,correct,NA,Jan 24 2023 13:46:07,Agnieszka,1
62fb7,62fb7_session2_lista_naming_trial099_tattoo.wav,2,a,naming,99,tattoo,1012,correct,NA,Jan 24 2023 13:46:16,Agnieszka,1
62fb7,62fb7_session2_lista_naming_trial100_lamp.wav,2,a,naming,100,lamp,834,correct,NA,Jan 24 2023 13:46:26,Agnieszka,1
62fb7,62fb7_session2_lista_naming_trial101_lighthouse.wav,2,a,naming,101,lighthouse,996,correct,NA,Jan 24 2023 13:46:34,Agnieszka,1
62fb7,62fb7_session2_lista_naming_trial102_sun.wav,2,a,naming,102,sun,789,correct,NA,Jan 24 2023 13:46:42,Agnieszka,1
62fb7,62fb7_session2_lista_naming_trial103_limo.wav,2,a,naming,103,limo,-1,wrong_word,NA,Jan 24 2023 13:46:50,Agnieszka,1
62fb7,62fb7_session2_lista_naming_trial104_island.wav,2,a,naming,104,island,1043,correct,NA,Jan 24 2023 13:47:00,Agnieszka,1
62fb7,62fb7_session2_lista_naming_trial105_mouth.wav,2,a,naming,105,mouth,847,correct,NA,Jan 24 2023 13:47:09,Agnieszka,1
62fb7,62fb7_session2_lista_naming_trial106_tray.wav,2,a,naming,106,tray,888,correct,NA,Jan 24 2023 13:47:17,Agnieszka,1
62fb7,62fb7_session2_lista_naming_trial107_doughnut.wav,2,a,naming,107,doughnut,936,correct,NA,Jan 24 2023 13:47:25,Agnieszka,1
62fb7,62fb7_session2_lista_naming_trial108_curtain.wav,2,a,naming,108,curtain,1444,correct,NA,Jan 24 2023 13:47:32,Agnieszka,1
62fb7,62fb7_session2_lista_naming_trial109_elbow.wav,2,a,naming,109,elbow,1072,correct,NA,Jan 24 2023 13:47:40,Agnieszka,1
62fb7,62fb7_session2_lista_naming_trial110_drum.wav,2,a,naming,110,drum,929,correct,NA,Jan 24 2023 13:47:47,Agnieszka,1
62fb7,62fb7_session2_lista_naming_trial111_windmill.wav,2,a,naming,111,windmill,1139,correct,NA,Jan 24 2023 13:47:55,Agnieszka,1
62fb7,62fb7_session2_lista_naming_trial112_lung.wav,2,a,naming,112,lung,-1,wrong_word,NA,Jan 24 2023 13:48:03,Agnieszka,1
62fb7,62fb7_session2_lista_naming_trial113_hat.wav,2,a,naming,113,hat,664,correct,NA,Jan 24 2023 13:48:11,Agnieszka,1
62fb7,62fb7_session2_lista_naming_trial114_mountain.wav,2,a,naming,114,mountain,802,correct,NA,Jan 24 2023 13:48:19,Agnieszka,1
62fb7,62fb7_session2_lista_naming_trial115_bottle.wav,2,a,naming,115,bottle,1139,correct,NA,Jan 24 2023 13:48:27,Agnieszka,1
62fb7,62fb7_session2_lista_naming_trial116_rabbit.wav,2,a,naming,116,rabbit,1047,correct,NA,Jan 24 2023 13:48:35,Agnieszka,1
62fb7,62fb7_session2_lista_naming_trial117_kiwi.wav,2,a,naming,117,kiwi,1349,correct,NA,Jan 24 2023 13:48:43,Agnieszka,1
62fb7,62fb7_session2_lista_naming_trial118_tree.wav,2,a,naming,118,tree,840,correct,NA,Jan 24 2023 13:48:50,Agnieszka,1
62fb7,62fb7_session2_lista_naming_trial119_sausage.wav,2,a,naming,119,sausage,821,correct,NA,Jan 24 2023 13:48:57,Agnieszka,1
62fb7,62fb7_session2_lista_naming_trial120_helicopter.wav,2,a,naming,120,helicopter,1094,correct,NA,Jan 24 2023 13:49:05,Agnieszka,1
62fb7,62fb7_session2_lista_naming_trial121_flower.wav,2,a,naming,121,flower,859,correct,NA,Jan 24 2023 13:49:30,Agnieszka,1
62fb7,62fb7_session2_lista_naming_trial122_book.wav,2,a,naming,122,book,805,correct,NA,Jan 24 2023 13:49:37,Agnieszka,1
62fb7,62fb7_session2_lista_naming_trial123_olive.wav,2,a,naming,123,olive,-1,no_resp,NA,Jan 24 2023 13:49:44,Agnieszka,1
62fb7,62fb7_session2_lista_naming_trial124_tambourine.wav,2,a,naming,124,tambourine,1018,correct,NA,Jan 24 2023 13:49:51,Agnieszka,1
62fb7,62fb7_session2_lista_naming_trial125_dice.wav,2,a,naming,125,dice,732,correct,NA,Jan 24 2023 13:50:01,Agnieszka,1
62fb7,62fb7_session2_lista_naming_trial126_fridge.wav,2,a,naming,126,fridge,1231,correct,NA,Jan 24 2023 13:50:12,Agnieszka,1
62fb7,62fb7_session2_lista_naming_trial127_gym.wav,2,a,naming,127,gym,913,correct,NA,Jan 24 2023 13:50:20,Agnieszka,1
62fb7,62fb7_session2_lista_naming_trial128_kitchen.wav,2,a,naming,128,kitchen,866,correct,NA,Jan 24 2023 13:50:30,Agnieszka,1
62fb7,62fb7_session2_lista_naming_trial129_squirrel.wav,2,a,naming,129,squirrel,1002,correct,NA,Jan 24 2023 13:50:42,Agnieszka,1
62fb7,62fb7_session2_lista_naming_trial130_tap.wav,2,a,naming,130,tap,815,correct,NA,Jan 24 2023 13:50:51,Agnieszka,1
62fb7,62fb7_session2_lista_naming_trial131_bus.wav,2,a,naming,131,bus,999,correct,NA,Jan 24 2023 13:50:58,Agnieszka,1
62fb7,62fb7_session2_lista_naming_trial132_bike.wav,2,a,naming,132,bike,-1,wrong_word,NA,Jan 24 2023 13:51:06,Agnieszka,1
62fb7,62fb7_session2_lista_naming_trial133_suitcase.wav,2,a,naming,133,suitcase,1304,correct,NA,Jan 24 2023 13:51:14,Agnieszka,1
62fb7,62fb7_session2_lista_naming_trial134_owl.wav,2,a,naming,134,owl,1021,correct,NA,Jan 24 2023 13:51:22,Agnieszka,1
62fb7,62fb7_session2_lista_naming_trial135_snake.wav,2,a,naming,135,snake,853,correct,NA,Jan 24 2023 13:51:30,Agnieszka,1
62fb7,62fb7_session2_lista_naming_trial136_drawer.wav,2,a,naming,136,drawer,821,correct,NA,Jan 24 2023 13:51:38,Agnieszka,1
62fb7,62fb7_session2_lista_naming_trial137_pineapple.wav,2,a,naming,137,pineapple,936,correct,NA,Jan 24 2023 13:51:45,Agnieszka,1
62fb7,62fb7_session2_lista_naming_trial138_castle.wav,2,a,naming,138,castle,1056,correct,NA,Jan 24 2023 13:51:52,Agnieszka,1
62fb7,62fb7_session2_lista_naming_trial139_glove.wav,2,a,naming,139,glove,805,correct,NA,Jan 24 2023 13:51:59,Agnieszka,1
62fb7,62fb7_session2_lista_naming_trial140_bell.wav,2,a,naming,140,bell,794,correct,NA,Jan 24 2023 13:52:07,Agnieszka,1
62fb7,62fb7_session2_lista_naming_trial141_fence.wav,2,a,naming,141,fence,873,correct,NA,Jan 24 2023 13:52:17,Agnieszka,1
62fb7,62fb7_session2_lista_naming_trial142_battery.wav,2,a,naming,142,battery,813,correct,NA,Jan 24 2023 13:52:26,Agnieszka,1
62fb7,62fb7_session2_lista_naming_trial143_train.wav,2,a,naming,143,train,964,correct,NA,Jan 24 2023 13:52:33,Agnieszka,1
62fb7,62fb7_session2_lista_naming_trial144_sword.wav,2,a,naming,144,sword,1081,correct,NA,Jan 24 2023 13:52:41,Agnieszka,1
62fb7,62fb7_session2_lista_naming_trial145_arrow.wav,2,a,naming,145,arrow,914,correct,NA,Jan 24 2023 13:52:49,Agnieszka,1
62fb7,62fb7_session2_lista_naming_trial146_hippo.wav,2,a,naming,146,hippo,1299,correct,NA,Jan 24 2023 13:53:01,Agnieszka,1
62fb7,62fb7_session2_lista_naming_trial147_pencil.wav,2,a,naming,147,pencil,754,correct,NA,Jan 24 2023 13:53:10,Agnieszka,1
62fb7,62fb7_session2_lista_naming_trial148_koala.wav,2,a,naming,148,koala,1028,correct,NA,Jan 24 2023 13:53:17,Agnieszka,1
62fb7,62fb7_session2_lista_naming_trial149_queen.wav,2,a,naming,149,queen,904,correct,NA,Jan 24 2023 13:53:25,Agnieszka,1
62fb7,62fb7_session2_lista_naming_trial150_cork.wav,2,a,naming,150,cork,983,correct,NA,Jan 24 2023 13:53:33,Agnieszka,1
