Participant_ID,File_Name,Session,List,Type_Trial,Trial_Nbr,Target,RT,Response_Trial,Comment,Date_Correction,Assessor_Name,Processed
5f69c,5f69c_session2_lista_naming_trial001_suit.wav,2,a,naming,1,suit,973,correct,NA,Jan 17 2023 12:36:52,Agnieszka,1
5f69c,5f69c_session2_lista_naming_trial002_teacher.wav,2,a,naming,2,teacher,1164,correct,NA,Jan 17 2023 12:37:04,Agnieszka,1
5f69c,5f69c_session2_lista_naming_trial003_beak.wav,2,a,naming,3,beak,724,correct,NA,Jan 17 2023 12:37:11,Agnieszka,1
5f69c,5f69c_session2_lista_naming_trial004_koala.wav,2,a,naming,4,koala,734,correct,NA,Jan 17 2023 12:37:22,Agnieszka,1
5f69c,5f69c_session2_lista_naming_trial005_drum.wav,2,a,naming,5,drum,715,correct,NA,Jan 17 2023 12:37:32,Agnieszka,1
5f69c,5f69c_session2_lista_naming_trial006_bike.wav,2,a,naming,6,bike,686,correct,NA,Jan 17 2023 12:37:40,Agnieszka,1
5f69c,5f69c_session2_lista_naming_trial007_orange.wav,2,a,naming,7,orange,934,correct,NA,Jan 17 2023 12:37:47,Agnieszka,1
5f69c,5f69c_session2_lista_naming_trial008_lamp.wav,2,a,naming,8,lamp,740,correct,NA,Jan 17 2023 12:37:58,Agnieszka,1
5f69c,5f69c_session2_lista_naming_trial009_kitchen.wav,2,a,naming,9,kitchen,950,correct,NA,Jan 17 2023 12:38:07,Agnieszka,1
5f69c,5f69c_session2_lista_naming_trial010_clown.wav,2,a,naming,10,clown,750,correct,NA,Jan 17 2023 12:38:15,Agnieszka,1
5f69c,5f69c_session2_lista_naming_trial011_fireplace.wav,2,a,naming,11,fireplace,912,correct,NA,Jan 17 2023 12:38:23,Agnieszka,1
5f69c,5f69c_session2_lista_naming_trial012_island.wav,2,a,naming,12,island,998,correct,NA,Jan 17 2023 12:38:30,Agnieszka,1
5f69c,5f69c_session2_lista_naming_trial013_sweet.wav,2,a,naming,13,sweet,743,correct,NA,Jan 17 2023 12:38:38,Agnieszka,1
5f69c,5f69c_session2_lista_naming_trial014_suitcase.wav,2,a,naming,14,suitcase,797,correct,NA,Jan 17 2023 12:38:47,Agnieszka,1
5f69c,5f69c_session2_lista_naming_trial015_ear.wav,2,a,naming,15,ear,731,correct,NA,Jan 17 2023 12:38:56,Agnieszka,1
5f69c,5f69c_session2_lista_naming_trial016_pear.wav,2,a,naming,16,pear,731,correct,NA,Jan 17 2023 12:39:07,Agnieszka,1
5f69c,5f69c_session2_lista_naming_trial017_kite.wav,2,a,naming,17,kite,731,correct,NA,Jan 17 2023 12:39:16,Agnieszka,1
5f69c,5f69c_session2_lista_naming_trial018_doctor.wav,2,a,naming,18,doctor,1145,correct,NA,Jan 17 2023 12:39:23,Agnieszka,1
5f69c,5f69c_session2_lista_naming_trial019_whale.wav,2,a,naming,19,whale,718,correct,NA,Jan 17 2023 12:39:31,Agnieszka,1
5f69c,5f69c_session2_lista_naming_trial020_circle.wav,2,a,naming,20,circle,641,correct,NA,Jan 17 2023 12:39:39,Agnieszka,1
5f69c,5f69c_session2_lista_naming_trial021_rabbit.wav,2,a,naming,21,rabbit,1119,correct,NA,Jan 17 2023 12:39:46,Agnieszka,1
5f69c,5f69c_session2_lista_naming_trial022_bib.wav,2,a,naming,22,bib,934,correct,NA,Jan 17 2023 12:39:55,Agnieszka,1
5f69c,5f69c_session2_lista_naming_trial023_magnet.wav,2,a,naming,23,magnet,782,correct,NA,Jan 17 2023 12:40:03,Agnieszka,1
5f69c,5f69c_session2_lista_naming_trial024_mountain.wav,2,a,naming,24,mountain,1043,correct,NA,Jan 17 2023 12:40:12,Agnieszka,1
5f69c,5f69c_session2_lista_naming_trial025_candle.wav,2,a,naming,25,candle,721,correct,NA,Jan 17 2023 12:40:19,Agnieszka,1
5f69c,5f69c_session2_lista_naming_trial026_glove.wav,2,a,naming,26,glove,686,correct,NA,Jan 17 2023 12:40:27,Agnieszka,1
5f69c,5f69c_session2_lista_naming_trial027_arrow.wav,2,a,naming,27,arrow,810,correct,NA,Jan 17 2023 12:40:37,Agnieszka,1
5f69c,5f69c_session2_lista_naming_trial028_hippo.wav,2,a,naming,28,hippo,762,correct,NA,Jan 17 2023 12:40:46,Agnieszka,1
5f69c,5f69c_session2_lista_naming_trial029_wall.wav,2,a,naming,29,wall,1313,correct,NA,Jan 17 2023 12:40:56,Agnieszka,1
5f69c,5f69c_session2_lista_naming_trial030_medal.wav,2,a,naming,30,medal,753,correct,NA,Jan 17 2023 12:41:04,Agnieszka,1
5f69c,5f69c_session2_lista_naming_trial031_carrot.wav,2,a,naming,31,carrot,670,correct,NA,Jan 17 2023 12:41:12,Agnieszka,1
5f69c,5f69c_session2_lista_naming_trial032_queen.wav,2,a,naming,32,queen,727,correct,NA,Jan 17 2023 12:41:19,Agnieszka,1
5f69c,5f69c_session2_lista_naming_trial033_fork.wav,2,a,naming,33,fork,590,correct,NA,Jan 17 2023 12:41:29,Agnieszka,1
5f69c,5f69c_session2_lista_naming_trial034_donkey.wav,2,a,naming,34,donkey,1027,correct,NA,Jan 17 2023 12:41:36,Agnieszka,1
5f69c,5f69c_session2_lista_naming_trial035_tie.wav,2,a,naming,35,tie,832,correct,NA,Jan 17 2023 12:41:44,Agnieszka,1
5f69c,5f69c_session2_lista_naming_trial036_knife.wav,2,a,naming,36,knife,756,correct,NA,Jan 17 2023 12:41:53,Agnieszka,1
5f69c,5f69c_session2_lista_naming_trial037_bottle.wav,2,a,naming,37,bottle,778,correct,NA,Jan 17 2023 12:42:02,Agnieszka,1
5f69c,5f69c_session2_lista_naming_trial038_comb.wav,2,a,naming,38,comb,852,correct,NA,Jan 17 2023 12:42:15,Agnieszka,1
5f69c,5f69c_session2_lista_naming_trial039_lung.wav,2,a,naming,39,lung,759,correct,NA,Jan 17 2023 12:42:22,Agnieszka,1
5f69c,5f69c_session2_lista_naming_trial040_zebra.wav,2,a,naming,40,zebra,743,correct,NA,Jan 17 2023 12:42:30,Agnieszka,1
5f69c,5f69c_session2_lista_naming_trial041_ghost.wav,2,a,naming,41,ghost,1011,correct,NA,Jan 17 2023 12:42:40,Agnieszka,1
5f69c,5f69c_session2_lista_naming_trial042_fairy.wav,2,a,naming,42,fairy,797,correct,NA,Jan 17 2023 12:42:47,Agnieszka,1
5f69c,5f69c_session2_lista_naming_trial043_butter.wav,2,a,naming,43,butter,1262,correct,NA,Jan 17 2023 12:42:55,Agnieszka,1
5f69c,5f69c_session2_lista_naming_trial044_helicopter.wav,2,a,naming,44,helicopter,1097,correct,NA,Jan 17 2023 12:43:03,Agnieszka,1
5f69c,5f69c_session2_lista_naming_trial045_lighthouse.wav,2,a,naming,45,lighthouse,1154,correct,NA,Jan 17 2023 12:43:10,Agnieszka,1
5f69c,5f69c_session2_lista_naming_trial046_plumber.wav,2,a,naming,46,plumber,893,correct,NA,Jan 17 2023 12:43:19,Agnieszka,1
5f69c,5f69c_session2_lista_naming_trial047_pepper.wav,2,a,naming,47,pepper,832,correct,NA,Jan 17 2023 12:43:28,Agnieszka,1
5f69c,5f69c_session2_lista_naming_trial048_avocado.wav,2,a,naming,48,avocado,762,correct,NA,Jan 17 2023 12:43:37,Agnieszka,1
5f69c,5f69c_session2_lista_naming_trial049_tongue.wav,2,a,naming,49,tongue,1161,correct,NA,Jan 17 2023 12:43:47,Agnieszka,1
5f69c,5f69c_session2_lista_naming_trial050_triangle.wav,2,a,naming,50,triangle,673,correct,NA,Jan 17 2023 12:43:55,Agnieszka,1
5f69c,5f69c_session2_lista_naming_trial051_puppet.wav,2,a,naming,51,puppet,1622,correct,NA,Jan 17 2023 12:44:08,Agnieszka,1
5f69c,5f69c_session2_lista_naming_trial052_boxer.wav,2,a,naming,52,boxer,1173,correct,NA,Jan 17 2023 12:44:15,Agnieszka,1
5f69c,5f69c_session2_lista_naming_trial053_elbow.wav,2,a,naming,53,elbow,1030,correct,NA,Jan 17 2023 12:44:23,Agnieszka,1
5f69c,5f69c_session2_lista_naming_trial054_snake.wav,2,a,naming,54,snake,1122,correct,NA,Jan 17 2023 12:44:31,Agnieszka,1
5f69c,5f69c_session2_lista_naming_trial055_shower.wav,2,a,naming,55,shower,868,correct,NA,Jan 17 2023 12:44:40,Agnieszka,1
5f69c,5f69c_session2_lista_naming_trial056_pencil.wav,2,a,naming,56,pencil,632,correct,NA,Jan 17 2023 12:44:48,Agnieszka,1
5f69c,5f69c_session2_lista_naming_trial057_train.wav,2,a,naming,57,train,918,correct,NA,Jan 17 2023 12:44:55,Agnieszka,1
5f69c,5f69c_session2_lista_naming_trial058_squirrel.wav,2,a,naming,58,squirrel,1428,correct,NA,Jan 17 2023 12:45:02,Agnieszka,1
5f69c,5f69c_session2_lista_naming_trial059_heel.wav,2,a,naming,59,heel,1205,correct,NA,Jan 17 2023 12:45:08,Agnieszka,1
5f69c,5f69c_session2_lista_naming_trial060_tomato.wav,2,a,naming,60,tomato,1090,correct,NA,Jan 17 2023 12:45:15,Agnieszka,1
5f69c,5f69c_session2_lista_naming_trial061_battery.wav,2,a,naming,61,battery,737,correct,NA,Jan 17 2023 12:45:25,Agnieszka,1
5f69c,5f69c_session2_lista_naming_trial062_lawnmower.wav,2,a,naming,62,lawnmower,-1,disfluency,NA,Jan 17 2023 12:45:43,Agnieszka,1
5f69c,5f69c_session2_lista_naming_trial063_apple.wav,2,a,naming,63,apple,1119,correct,NA,Jan 17 2023 12:45:52,Agnieszka,1
5f69c,5f69c_session2_lista_naming_trial064_owl.wav,2,a,naming,64,owl,985,correct,NA,Jan 17 2023 12:46:01,Agnieszka,1
5f69c,5f69c_session2_lista_naming_trial065_fridge.wav,2,a,naming,65,fridge,813,correct,NA,Jan 17 2023 12:46:09,Agnieszka,1
5f69c,5f69c_session2_lista_naming_trial066_rocket.wav,2,a,naming,66,rocket,925,correct,NA,Jan 17 2023 12:46:17,Agnieszka,1
5f69c,5f69c_session2_lista_naming_trial067_bear.wav,2,a,naming,67,bear,960,correct,NA,Jan 17 2023 12:46:24,Agnieszka,1
5f69c,5f69c_session2_lista_naming_trial068_judge.wav,2,a,naming,68,judge,1737,correct,NA,Jan 17 2023 12:46:32,Agnieszka,1
5f69c,5f69c_session2_lista_naming_trial069_windmill.wav,2,a,naming,69,windmill,2352,correct,NA,Jan 17 2023 12:46:38,Agnieszka,1
5f69c,5f69c_session2_lista_naming_trial070_flag.wav,2,a,naming,70,flag,1090,correct,NA,Jan 17 2023 12:46:47,Agnieszka,1
5f69c,5f69c_session2_lista_naming_trial071_sausage.wav,2,a,naming,71,sausage,-1,wrong_word,NA,Jan 17 2023 12:46:57,Agnieszka,1
5f69c,5f69c_session2_lista_naming_trial072_rhino.wav,2,a,naming,72,rhino,1154,correct,NA,Jan 17 2023 12:47:06,Agnieszka,1
5f69c,5f69c_session2_lista_naming_trial073_peg.wav,2,a,naming,73,peg,1180,correct,NA,Jan 17 2023 12:47:18,Agnieszka,1
5f69c,5f69c_session2_lista_naming_trial074_crab.wav,2,a,naming,74,crab,950,correct,NA,Jan 17 2023 12:47:27,Agnieszka,1
5f69c,5f69c_session2_lista_naming_trial075_bull.wav,2,a,naming,75,bull,1403,correct,NA,Jan 17 2023 12:47:37,Agnieszka,1
5f69c,5f69c_session2_lista_naming_trial076_pipe.wav,2,a,naming,76,pipe,1431,correct,NA,Jan 17 2023 12:47:46,Agnieszka,1
5f69c,5f69c_session2_lista_naming_trial077_arm.wav,2,a,naming,77,arm,1438,correct,NA,Jan 17 2023 12:47:58,Agnieszka,1
5f69c,5f69c_session2_lista_naming_trial078_tunnel.wav,2,a,naming,78,tunnel,-1,wrong_word,NA,Jan 17 2023 12:48:06,Agnieszka,1
5f69c,5f69c_session2_lista_naming_trial079_shoe.wav,2,a,naming,79,shoe,1798,correct,NA,Jan 17 2023 12:48:14,Agnieszka,1
5f69c,5f69c_session2_lista_naming_trial080_kangaroo.wav,2,a,naming,80,kangaroo,868,correct,NA,Jan 17 2023 12:48:23,Agnieszka,1
5f69c,5f69c_session2_lista_naming_trial081_cork.wav,2,a,naming,81,cork,883,correct,NA,Jan 17 2023 12:48:33,Agnieszka,1
5f69c,5f69c_session2_lista_naming_trial082_key.wav,2,a,naming,82,key,1001,correct,NA,Jan 17 2023 12:48:41,Agnieszka,1
5f69c,5f69c_session2_lista_naming_trial083_potato.wav,2,a,naming,83,potato,848,correct,NA,Jan 17 2023 12:48:49,Agnieszka,1
5f69c,5f69c_session2_lista_naming_trial084_zip.wav,2,a,naming,84,zip,883,correct,NA,Jan 17 2023 12:48:58,Agnieszka,1
5f69c,5f69c_session2_lista_naming_trial085_saw.wav,2,a,naming,85,saw,925,correct,NA,Jan 17 2023 12:49:08,Agnieszka,1
5f69c,5f69c_session2_lista_naming_trial086_computer.wav,2,a,naming,86,computer,966,correct,NA,Jan 17 2023 12:49:20,Agnieszka,1
5f69c,5f69c_session2_lista_naming_trial087_tiger.wav,2,a,naming,87,tiger,954,correct,NA,Jan 17 2023 12:49:28,Agnieszka,1
5f69c,5f69c_session2_lista_naming_trial088_olive.wav,2,a,naming,88,olive,966,correct,NA,Jan 17 2023 12:49:37,Agnieszka,1
5f69c,5f69c_session2_lista_naming_trial089_tap.wav,2,a,naming,89,tap,874,correct,NA,Jan 17 2023 12:49:45,Agnieszka,1
5f69c,5f69c_session2_lista_naming_trial090_tractor.wav,2,a,naming,90,tractor,737,correct,NA,Jan 17 2023 12:49:53,Agnieszka,1
5f69c,5f69c_session2_lista_naming_trial091_bell.wav,2,a,naming,91,bell,944,correct,NA,Jan 17 2023 12:50:03,Agnieszka,1
5f69c,5f69c_session2_lista_naming_trial092_bullet.wav,2,a,naming,92,bullet,1231,correct,NA,Jan 17 2023 12:50:11,Agnieszka,1
5f69c,5f69c_session2_lista_naming_trial093_tray.wav,2,a,naming,93,tray,915,correct,NA,Jan 17 2023 12:50:18,Agnieszka,1
5f69c,5f69c_session2_lista_naming_trial094_ruler.wav,2,a,naming,94,ruler,1218,correct,NA,Jan 17 2023 12:50:25,Agnieszka,1
5f69c,5f69c_session2_lista_naming_trial095_jellyfish.wav,2,a,naming,95,jellyfish,759,correct,NA,Jan 17 2023 12:50:33,Agnieszka,1
5f69c,5f69c_session2_lista_naming_trial096_thumb.wav,2,a,naming,96,thumb,762,correct,NA,Jan 17 2023 12:50:40,Agnieszka,1
5f69c,5f69c_session2_lista_naming_trial097_scissors.wav,2,a,naming,97,scissors,718,correct,NA,Jan 17 2023 12:50:50,Agnieszka,1
5f69c,5f69c_session2_lista_naming_trial098_curtain.wav,2,a,naming,98,curtain,906,correct,NA,Jan 17 2023 12:50:58,Agnieszka,1
5f69c,5f69c_session2_lista_naming_trial099_net.wav,2,a,naming,99,net,775,correct,NA,Jan 17 2023 12:51:08,Agnieszka,1
5f69c,5f69c_session2_lista_naming_trial100_butterfly.wav,2,a,naming,100,butterfly,839,correct,NA,Jan 17 2023 12:51:26,Agnieszka,1
5f69c,5f69c_session2_lista_naming_trial101_dummy.wav,2,a,naming,101,dummy,1014,correct,NA,Jan 17 2023 12:51:33,Agnieszka,1
5f69c,5f69c_session2_lista_naming_trial102_caterpillar.wav,2,a,naming,102,caterpillar,1049,correct,NA,Jan 17 2023 12:51:41,Agnieszka,1
5f69c,5f69c_session2_lista_naming_trial103_map.wav,2,a,naming,103,map,1425,correct,NA,Jan 17 2023 12:51:50,Agnieszka,1
5f69c,5f69c_session2_lista_naming_trial104_nest.wav,2,a,naming,104,nest,810,correct,NA,Jan 17 2023 12:51:59,Agnieszka,1
5f69c,5f69c_session2_lista_naming_trial105_tree.wav,2,a,naming,105,tree,918,correct,NA,Jan 17 2023 12:52:06,Agnieszka,1
5f69c,5f69c_session2_lista_naming_trial106_limo.wav,2,a,naming,106,limo,740,correct,NA,Jan 17 2023 12:52:14,Agnieszka,1
5f69c,5f69c_session2_lista_naming_trial107_doughnut.wav,2,a,naming,107,doughnut,1129,correct,NA,Jan 17 2023 12:52:22,Agnieszka,1
5f69c,5f69c_session2_lista_naming_trial108_pocket.wav,2,a,naming,108,pocket,1234,correct,NA,Jan 17 2023 12:52:29,Agnieszka,1
5f69c,5f69c_session2_lista_naming_trial109_wheelbarrow.wav,2,a,naming,109,wheelbarrow,1231,correct,NA,Jan 17 2023 12:52:37,Agnieszka,1
5f69c,5f69c_session2_lista_naming_trial110_coat.wav,2,a,naming,110,coat,1313,correct,NA,Jan 17 2023 12:52:44,Agnieszka,1
5f69c,5f69c_session2_lista_naming_trial111_tambourine.wav,2,a,naming,111,tambourine,1422,correct,NA,Jan 17 2023 12:52:52,Agnieszka,1
5f69c,5f69c_session2_lista_naming_trial112_hat.wav,2,a,naming,112,hat,1087,correct,NA,Jan 17 2023 12:53:01,Agnieszka,1
5f69c,5f69c_session2_lista_naming_trial113_skirt.wav,2,a,naming,113,skirt,938,correct,NA,Jan 17 2023 12:53:14,Agnieszka,1
5f69c,5f69c_session2_lista_naming_trial114_mouth.wav,2,a,naming,114,mouth,1090,correct,NA,Jan 17 2023 12:53:25,Agnieszka,1
5f69c,5f69c_session2_lista_naming_trial115_tattoo.wav,2,a,naming,115,tattoo,1170,correct,NA,Jan 17 2023 12:53:33,Agnieszka,1
5f69c,5f69c_session2_lista_naming_trial116_wave.wav,2,a,naming,116,wave,842,correct,NA,Jan 17 2023 12:53:41,Agnieszka,1
5f69c,5f69c_session2_lista_naming_trial117_soap.wav,2,a,naming,117,soap,2466,correct,NA,Jan 17 2023 12:53:47,Agnieszka,1
5f69c,5f69c_session2_lista_naming_trial118_book.wav,2,a,naming,118,book,1075,correct,NA,Jan 17 2023 12:53:56,Agnieszka,1
5f69c,5f69c_session2_lista_naming_trial119_cherry.wav,2,a,naming,119,cherry,641,correct,NA,Jan 17 2023 12:54:09,Agnieszka,1
5f69c,5f69c_session2_lista_naming_trial120_pineapple.wav,2,a,naming,120,pineapple,782,correct,NA,Jan 17 2023 12:54:17,Agnieszka,1
5f69c,5f69c_session2_lista_naming_trial121_flipper.wav,2,a,naming,121,flipper,922,correct,NA,Jan 17 2023 12:54:24,Agnieszka,1
5f69c,5f69c_session2_lista_naming_trial122_rose.wav,2,a,naming,122,rose,718,correct,NA,Jan 17 2023 12:54:34,Agnieszka,1
5f69c,5f69c_session2_lista_naming_trial123_wing.wav,2,a,naming,123,wing,1001,correct,NA,Jan 17 2023 12:54:41,Agnieszka,1
5f69c,5f69c_session2_lista_naming_trial124_sword.wav,2,a,naming,124,sword,890,correct,NA,Jan 17 2023 12:54:51,Agnieszka,1
5f69c,5f69c_session2_lista_naming_trial125_shield.wav,2,a,naming,125,shield,864,correct,NA,Jan 17 2023 12:55:01,Agnieszka,1
5f69c,5f69c_session2_lista_naming_trial126_drawer.wav,2,a,naming,126,drawer,903,correct,NA,Jan 17 2023 12:55:14,Agnieszka,1
5f69c,5f69c_session2_lista_naming_trial127_fox.wav,2,a,naming,127,fox,648,correct,NA,Jan 17 2023 12:55:24,Agnieszka,1
5f69c,5f69c_session2_lista_naming_trial128_bus.wav,2,a,naming,128,bus,753,correct,NA,Jan 17 2023 12:55:33,Agnieszka,1
5f69c,5f69c_session2_lista_naming_trial129_onion.wav,2,a,naming,129,onion,810,correct,NA,Jan 17 2023 12:55:45,Agnieszka,1
5f69c,5f69c_session2_lista_naming_trial130_robot.wav,2,a,naming,130,robot,797,correct,NA,Jan 17 2023 12:55:56,Agnieszka,1
5f69c,5f69c_session2_lista_naming_trial131_bone.wav,2,a,naming,131,bone,753,correct,NA,Jan 17 2023 12:56:04,Agnieszka,1
5f69c,5f69c_session2_lista_naming_trial132_compass.wav,2,a,naming,132,compass,934,correct,NA,Jan 17 2023 12:56:13,Agnieszka,1
5f69c,5f69c_session2_lista_naming_trial133_bench.wav,2,a,naming,133,bench,721,correct,NA,Jan 17 2023 12:56:22,Agnieszka,1
5f69c,5f69c_session2_lista_naming_trial134_castle.wav,2,a,naming,134,castle,721,correct,NA,Jan 17 2023 12:56:32,Agnieszka,1
5f69c,5f69c_session2_lista_naming_trial135_swan.wav,2,a,naming,135,swan,641,correct,NA,Jan 17 2023 12:56:39,Agnieszka,1
5f69c,5f69c_session2_lista_naming_trial136_goat.wav,2,a,naming,136,goat,890,correct,NA,Jan 17 2023 12:56:52,Agnieszka,1
5f69c,5f69c_session2_lista_naming_trial137_basket.wav,2,a,naming,137,basket,893,correct,NA,Jan 17 2023 12:56:59,Agnieszka,1
5f69c,5f69c_session2_lista_naming_trial138_star.wav,2,a,naming,138,star,568,correct,NA,Jan 17 2023 12:57:07,Agnieszka,1
5f69c,5f69c_session2_lista_naming_trial139_flower.wav,2,a,naming,139,flower,823,correct,NA,Jan 17 2023 12:57:25,Agnieszka,1
5f69c,5f69c_session2_lista_naming_trial140_dress.wav,2,a,naming,140,dress,922,correct,NA,Jan 17 2023 12:57:33,Agnieszka,1
5f69c,5f69c_session2_lista_naming_trial141_mermaid.wav,2,a,naming,141,mermaid,880,correct,NA,Jan 17 2023 12:57:41,Agnieszka,1
5f69c,5f69c_session2_lista_naming_trial142_kiwi.wav,2,a,naming,142,kiwi,836,correct,NA,Jan 17 2023 12:57:51,Agnieszka,1
5f69c,5f69c_session2_lista_naming_trial143_gym.wav,2,a,naming,143,gym,1202,correct,NA,Jan 17 2023 12:57:59,Agnieszka,1
5f69c,5f69c_session2_lista_naming_trial144_fence.wav,2,a,naming,144,fence,963,correct,NA,Jan 17 2023 12:58:07,Agnieszka,1
5f69c,5f69c_session2_lista_naming_trial145_submarine.wav,2,a,naming,145,submarine,1861,correct,NA,Jan 17 2023 12:58:14,Agnieszka,1
5f69c,5f69c_session2_lista_naming_trial146_dice.wav,2,a,naming,146,dice,960,correct,NA,Jan 17 2023 12:58:22,Agnieszka,1
5f69c,5f69c_session2_lista_naming_trial147_lighter.wav,2,a,naming,147,lighter,2205,correct,NA,Jan 17 2023 12:58:31,Agnieszka,1
5f69c,5f69c_session2_lista_naming_trial148_camel.wav,2,a,naming,148,camel,899,correct,NA,Jan 17 2023 12:58:39,Agnieszka,1
5f69c,5f69c_session2_lista_naming_trial149_bracelet.wav,2,a,naming,149,bracelet,1075,correct,NA,Jan 17 2023 12:58:46,Agnieszka,1
5f69c,5f69c_session2_lista_naming_trial150_sun.wav,2,a,naming,150,sun,689,correct,NA,Jan 17 2023 12:58:57,Agnieszka,1
