Participant_ID,File_Name,Session,List,Type_Trial,Trial_Nbr,Target,RT,Response_Trial,Comment,Date_Correction,Assessor_Name,Processed
5d593,5d593_session1_lista_naming_trial001_bench.wav,1,a,naming,1,bench,1919,correct,NA,Mar 31 2023 11:14:53,Agnieszka,1
5d593,5d593_session1_lista_naming_trial002_hat.wav,1,a,naming,2,hat,623,correct,NA,Mar 31 2023 11:22:06,Agnieszka,1
5d593,5d593_session1_lista_naming_trial003_sword.wav,1,a,naming,3,sword,832,correct,NA,Mar 31 2023 11:22:14,Agnieszka,1
5d593,5d593_session1_lista_naming_trial004_bullet.wav,1,a,naming,4,bullet,1138,correct,NA,Mar 31 2023 11:22:44,Agnieszka,1
5d593,5d593_session1_lista_naming_trial005_compass.wav,1,a,naming,5,compass,1342,correct,NA,Mar 31 2023 11:24:38,Agnieszka,1
5d593,5d593_session1_lista_naming_trial006_ruler.wav,1,a,naming,6,ruler,918,correct,NA,Mar 31 2023 11:25:42,Agnieszka,1
5d593,5d593_session1_lista_naming_trial007_hippo.wav,1,a,naming,7,hippo,985,correct,NA,Mar 31 2023 11:26:04,Agnieszka,1
5d593,5d593_session1_lista_naming_trial008_bull.wav,1,a,naming,8,bull,1756,correct,NA,Mar 31 2023 11:26:11,Agnieszka,1
5d593,5d593_session1_lista_naming_trial009_wave.wav,1,a,naming,9,wave,1020,correct,NA,Mar 31 2023 11:26:27,Agnieszka,1
5d593,5d593_session1_lista_naming_trial010_flower.wav,1,a,naming,10,flower,718,correct,NA,Mar 31 2023 11:27:08,Agnieszka,1
5d593,5d593_session1_lista_naming_trial011_butter.wav,1,a,naming,11,butter,899,correct,NA,Mar 31 2023 11:27:16,Agnieszka,1
5d593,5d593_session1_lista_naming_trial012_windmill.wav,1,a,naming,12,windmill,753,correct,NA,Mar 31 2023 11:27:25,Agnieszka,1
5d593,5d593_session1_lista_naming_trial013_drum.wav,1,a,naming,13,drum,874,correct,NA,Mar 31 2023 11:27:33,Agnieszka,1
5d593,5d593_session1_lista_naming_trial014_peg.wav,1,a,naming,14,peg,782,correct,NA,Mar 31 2023 11:27:40,Agnieszka,1
5d593,5d593_session1_lista_naming_trial015_donkey.wav,1,a,naming,15,donkey,947,correct,NA,Mar 31 2023 11:27:46,Agnieszka,1
5d593,5d593_session1_lista_naming_trial016_lighter.wav,1,a,naming,16,lighter,785,correct,NA,Mar 31 2023 11:28:02,Agnieszka,1
5d593,5d593_session1_lista_naming_trial017_goat.wav,1,a,naming,17,goat,989,correct,NA,Mar 31 2023 11:28:14,Agnieszka,1
5d593,5d593_session1_lista_naming_trial018_book.wav,1,a,naming,18,book,985,correct,NA,Mar 31 2023 11:28:24,Agnieszka,1
5d593,5d593_session1_lista_naming_trial019_doctor.wav,1,a,naming,19,doctor,957,correct,NA,Mar 31 2023 11:28:32,Agnieszka,1
5d593,5d593_session1_lista_naming_trial020_snake.wav,1,a,naming,20,snake,756,correct,NA,Mar 31 2023 11:28:41,Agnieszka,1
5d593,5d593_session1_lista_naming_trial021_thumb.wav,1,a,naming,21,thumb,801,correct,NA,Mar 31 2023 11:29:06,Agnieszka,1
5d593,5d593_session1_lista_naming_trial022_tie.wav,1,a,naming,22,tie,750,correct,NA,Mar 31 2023 11:29:14,Agnieszka,1
5d593,5d593_session1_lista_naming_trial023_suit.wav,1,a,naming,23,suit,817,correct,NA,Mar 31 2023 11:29:22,Agnieszka,1
5d593,5d593_session1_lista_naming_trial024_computer.wav,1,a,naming,24,computer,832,correct,NA,Apr  3 2023 16:47:02,Agnieszka,1
5d593,5d593_session1_lista_naming_trial025_medal.wav,1,a,naming,25,medal,836,correct,NA,Apr  3 2023 16:47:10,Agnieszka,1
5d593,5d593_session1_lista_naming_trial026_kangaroo.wav,1,a,naming,26,kangaroo,899,correct,NA,Apr  3 2023 16:47:17,Agnieszka,1
5d593,5d593_session1_lista_naming_trial027_rabbit.wav,1,a,naming,27,rabbit,883,correct,NA,Apr  3 2023 16:47:25,Agnieszka,1
5d593,5d593_session1_lista_naming_trial028_crab.wav,1,a,naming,28,crab,794,correct,NA,Apr  3 2023 16:47:32,Agnieszka,1
5d593,5d593_session1_lista_naming_trial029_island.wav,1,a,naming,29,island,877,correct,NA,Apr  3 2023 16:47:44,Agnieszka,1
5d593,5d593_session1_lista_naming_trial030_judge.wav,1,a,naming,30,judge,1126,correct,NA,Apr  3 2023 16:47:51,Agnieszka,1
5d593,5d593_session1_lista_naming_trial031_scissors.wav,1,a,naming,31,scissors,679,correct,NA,Apr  3 2023 16:48:01,Agnieszka,1
5d593,5d593_session1_lista_naming_trial032_dice.wav,1,a,naming,32,dice,931,correct,NA,Apr  3 2023 16:48:10,Agnieszka,1
5d593,5d593_session1_lista_naming_trial033_onion.wav,1,a,naming,33,onion,785,correct,NA,Apr  3 2023 16:48:19,Agnieszka,1
5d593,5d593_session1_lista_naming_trial034_fork.wav,1,a,naming,34,fork,683,correct,NA,Apr  3 2023 16:48:30,Agnieszka,1
5d593,5d593_session1_lista_naming_trial035_tap.wav,1,a,naming,35,tap,829,correct,NA,Apr  3 2023 16:48:37,Agnieszka,1
5d593,5d593_session1_lista_naming_trial036_flag.wav,1,a,naming,36,flag,689,correct,NA,Apr  3 2023 16:48:45,Agnieszka,1
5d593,5d593_session1_lista_naming_trial037_battery.wav,1,a,naming,37,battery,708,correct,NA,Apr  3 2023 16:48:58,Agnieszka,1
5d593,5d593_session1_lista_naming_trial038_lighthouse.wav,1,a,naming,38,lighthouse,737,correct,NA,Apr  3 2023 16:49:06,Agnieszka,1
5d593,5d593_session1_lista_naming_trial039_curtain.wav,1,a,naming,39,curtain,1823,correct,NA,Apr  3 2023 16:49:15,Agnieszka,1
5d593,5d593_session1_lista_naming_trial040_potato.wav,1,a,naming,40,potato,839,correct,NA,Apr  3 2023 16:49:22,Agnieszka,1
5d593,5d593_session1_lista_naming_trial041_whale.wav,1,a,naming,41,whale,772,correct,NA,Apr  3 2023 16:49:32,Agnieszka,1
5d593,5d593_session1_lista_naming_trial042_bracelet.wav,1,a,naming,42,bracelet,1176,correct,NA,Apr  3 2023 16:49:41,Agnieszka,1
5d593,5d593_session1_lista_naming_trial043_fridge.wav,1,a,naming,43,fridge,817,correct,NA,Apr  3 2023 16:49:52,Agnieszka,1
5d593,5d593_session1_lista_naming_trial044_tongue.wav,1,a,naming,44,tongue,836,correct,NA,Apr  3 2023 16:49:59,Agnieszka,1
5d593,5d593_session1_lista_naming_trial045_clown.wav,1,a,naming,45,clown,775,correct,NA,Apr  3 2023 16:50:07,Agnieszka,1
5d593,5d593_session1_lista_naming_trial046_bib.wav,1,a,naming,46,bib,1145,correct,NA,Apr  3 2023 16:50:19,Agnieszka,1
5d593,5d593_session1_lista_naming_trial047_skirt.wav,1,a,naming,47,skirt,973,correct,NA,Apr  3 2023 16:50:42,Agnieszka,1
5d593,5d593_session1_lista_naming_trial048_train.wav,1,a,naming,48,train,1053,correct,NA,Apr  3 2023 16:50:51,Agnieszka,1
5d593,5d593_session1_lista_naming_trial049_gym.wav,1,a,naming,49,gym,1122,correct,NA,Apr  3 2023 16:51:00,Agnieszka,1
5d593,5d593_session1_lista_naming_trial050_boxer.wav,1,a,naming,50,boxer,823,correct,NA,Apr  3 2023 16:51:07,Agnieszka,1
5d593,5d593_session1_lista_naming_trial051_pear.wav,1,a,naming,51,pear,880,correct,NA,Apr  3 2023 16:51:19,Agnieszka,1
5d593,5d593_session1_lista_naming_trial052_doughnut.wav,1,a,naming,52,doughnut,887,correct,NA,Apr  3 2023 16:51:29,Agnieszka,1
5d593,5d593_session1_lista_naming_trial053_olive.wav,1,a,naming,53,olive,995,correct,NA,Apr  3 2023 16:51:38,Agnieszka,1
5d593,5d593_session1_lista_naming_trial054_tunnel.wav,1,a,naming,54,tunnel,1052,correct,NA,Apr  3 2023 16:51:46,Agnieszka,1
5d593,5d593_session1_lista_naming_trial055_fireplace.wav,1,a,naming,55,fireplace,947,correct,NA,Apr  3 2023 16:51:57,Agnieszka,1
5d593,5d593_session1_lista_naming_trial056_sun.wav,1,a,naming,56,sun,893,correct,NA,Apr  3 2023 16:52:05,Agnieszka,1
5d593,5d593_session1_lista_naming_trial057_tomato.wav,1,a,naming,57,tomato,775,correct,NA,Apr  3 2023 16:52:20,Agnieszka,1
5d593,5d593_session1_lista_naming_trial058_circle.wav,1,a,naming,58,circle,759,correct,NA,Apr  3 2023 16:52:26,Agnieszka,1
5d593,5d593_session1_lista_naming_trial059_robot.wav,1,a,naming,59,robot,918,correct,NA,Apr  3 2023 16:52:34,Agnieszka,1
5d593,5d593_session1_lista_naming_trial060_star.wav,1,a,naming,60,star,941,correct,NA,Apr  3 2023 16:52:40,Agnieszka,1
5d593,5d593_session1_lista_naming_trial061_drawer.wav,1,a,naming,61,drawer,813,correct,NA,Apr  3 2023 16:52:50,Agnieszka,1
5d593,5d593_session1_lista_naming_trial062_magnet.wav,1,a,naming,62,magnet,820,correct,NA,Apr  3 2023 16:53:00,Agnieszka,1
5d593,5d593_session1_lista_naming_trial063_cherry.wav,1,a,naming,63,cherry,852,correct,NA,Apr  3 2023 16:53:08,Agnieszka,1
5d593,5d593_session1_lista_naming_trial064_lamp.wav,1,a,naming,64,lamp,762,correct,NA,Apr  3 2023 16:53:16,Agnieszka,1
5d593,5d593_session1_lista_naming_trial065_squirrel.wav,1,a,naming,65,squirrel,727,correct,NA,Apr  3 2023 16:53:24,Agnieszka,1
5d593,5d593_session1_lista_naming_trial066_rose.wav,1,a,naming,66,rose,820,correct,NA,Apr  3 2023 16:53:34,Agnieszka,1
5d593,5d593_session1_lista_naming_trial067_bell.wav,1,a,naming,67,bell,839,correct,NA,Apr  3 2023 16:53:41,Agnieszka,1
5d593,5d593_session1_lista_naming_trial068_saw.wav,1,a,naming,68,saw,711,correct,NA,Apr  3 2023 16:53:51,Agnieszka,1
5d593,5d593_session1_lista_naming_trial069_mermaid.wav,1,a,naming,69,mermaid,845,correct,NA,Apr  3 2023 16:54:02,Agnieszka,1
5d593,5d593_session1_lista_naming_trial070_queen.wav,1,a,naming,70,queen,989,correct,NA,Apr  3 2023 16:54:08,Agnieszka,1
5d593,5d593_session1_lista_naming_trial071_knife.wav,1,a,naming,71,knife,839,correct,NA,Apr  3 2023 16:54:15,Agnieszka,1
5d593,5d593_session1_lista_naming_trial072_arrow.wav,1,a,naming,72,arrow,906,correct,NA,Apr  3 2023 16:54:24,Agnieszka,1
5d593,5d593_session1_lista_naming_trial073_helicopter.wav,1,a,naming,73,helicopter,903,correct,NA,Apr  3 2023 16:54:32,Agnieszka,1
5d593,5d593_session1_lista_naming_trial074_shield.wav,1,a,naming,74,shield,683,correct,NA,Apr  3 2023 16:54:39,Agnieszka,1
5d593,5d593_session1_lista_naming_trial075_tiger.wav,1,a,naming,75,tiger,657,correct,NA,Apr  3 2023 16:54:47,Agnieszka,1
5d593,5d593_session1_lista_naming_trial076_suitcase.wav,1,a,naming,76,suitcase,893,correct,NA,Apr  3 2023 16:54:55,Agnieszka,1
5d593,5d593_session1_lista_naming_trial077_owl.wav,1,a,naming,77,owl,829,correct,NA,Apr  3 2023 16:55:04,Agnieszka,1
5d593,5d593_session1_lista_naming_trial078_avocado.wav,1,a,naming,78,avocado,762,correct,NA,Apr  3 2023 16:55:13,Agnieszka,1
5d593,5d593_session1_lista_naming_trial079_carrot.wav,1,a,naming,79,carrot,683,correct,NA,Apr  3 2023 16:55:25,Agnieszka,1
5d593,5d593_session1_lista_naming_trial080_orange.wav,1,a,naming,80,orange,896,correct,NA,Apr  3 2023 16:55:34,Agnieszka,1
5d593,5d593_session1_lista_naming_trial081_submarine.wav,1,a,naming,81,submarine,1154,correct,NA,Apr  3 2023 16:55:40,Agnieszka,1
5d593,5d593_session1_lista_naming_trial082_tambourine.wav,1,a,naming,82,tambourine,1186,correct,NA,Apr  3 2023 16:55:47,Agnieszka,1
5d593,5d593_session1_lista_naming_trial083_lawnmower.wav,1,a,naming,83,lawnmower,938,correct,NA,Apr  3 2023 16:55:54,Agnieszka,1
5d593,5d593_session1_lista_naming_trial084_arm.wav,1,a,naming,84,arm,918,correct,NA,Apr  3 2023 16:56:02,Agnieszka,1
5d593,5d593_session1_lista_naming_trial085_dress.wav,1,a,naming,85,dress,1087,correct,NA,Apr  3 2023 16:56:11,Agnieszka,1
5d593,5d593_session1_lista_naming_trial086_bus.wav,1,a,naming,86,bus,1192,correct,NA,Apr  3 2023 16:56:21,Agnieszka,1
5d593,5d593_session1_lista_naming_trial087_butterfly.wav,1,a,naming,87,butterfly,708,correct,NA,Apr  3 2023 16:56:28,Agnieszka,1
5d593,5d593_session1_lista_naming_trial088_tattoo.wav,1,a,naming,88,tattoo,1008,correct,NA,Apr  3 2023 16:56:35,Agnieszka,1
5d593,5d593_session1_lista_naming_trial089_pineapple.wav,1,a,naming,89,pineapple,826,correct,NA,Apr  3 2023 16:56:43,Agnieszka,1
5d593,5d593_session1_lista_naming_trial090_swan.wav,1,a,naming,90,swan,724,correct,NA,Apr  3 2023 16:56:50,Agnieszka,1
5d593,5d593_session1_lista_naming_trial091_shoe.wav,1,a,naming,91,shoe,804,correct,NA,Apr  3 2023 16:56:57,Agnieszka,1
5d593,5d593_session1_lista_naming_trial092_pencil.wav,1,a,naming,92,pencil,740,correct,NA,Apr  3 2023 16:57:08,Agnieszka,1
5d593,5d593_session1_lista_naming_trial093_pepper.wav,1,a,naming,93,pepper,1084,correct,NA,Apr  3 2023 16:57:15,Agnieszka,1
5d593,5d593_session1_lista_naming_trial094_basket.wav,1,a,naming,94,basket,705,correct,NA,Apr  3 2023 16:57:24,Agnieszka,1
5d593,5d593_session1_lista_naming_trial095_rocket.wav,1,a,naming,95,rocket,1008,correct,NA,Apr  3 2023 16:57:33,Agnieszka,1
5d593,5d593_session1_lista_naming_trial096_comb.wav,1,a,naming,96,comb,1017,correct,NA,Apr  3 2023 16:57:43,Agnieszka,1
5d593,5d593_session1_lista_naming_trial097_coat.wav,1,a,naming,97,coat,1094,correct,NA,Apr  3 2023 16:57:50,Agnieszka,1
5d593,5d593_session1_lista_naming_trial098_soap.wav,1,a,naming,98,soap,1208,correct,NA,Apr  3 2023 16:58:00,Agnieszka,1
5d593,5d593_session1_lista_naming_trial099_zip.wav,1,a,naming,99,zip,925,correct,NA,Apr  3 2023 16:58:08,Agnieszka,1
5d593,5d593_session1_lista_naming_trial100_caterpillar.wav,1,a,naming,100,caterpillar,839,correct,NA,Apr  3 2023 16:58:16,Agnieszka,1
5d593,5d593_session1_lista_naming_trial101_glove.wav,1,a,naming,101,glove,880,correct,NA,Apr  3 2023 16:58:24,Agnieszka,1
5d593,5d593_session1_lista_naming_trial102_ghost.wav,1,a,naming,102,ghost,782,correct,NA,Apr  3 2023 16:58:32,Agnieszka,1
5d593,5d593_session1_lista_naming_trial103_limo.wav,1,a,naming,103,limo,-1,wrong_word,NA,Apr  3 2023 16:58:39,Agnieszka,1
5d593,5d593_session1_lista_naming_trial104_tree.wav,1,a,naming,104,tree,737,correct,NA,Apr  3 2023 16:58:47,Agnieszka,1
5d593,5d593_session1_lista_naming_trial105_ear.wav,1,a,naming,105,ear,883,correct,NA,Apr  3 2023 16:58:56,Agnieszka,1
5d593,5d593_session1_lista_naming_trial106_sausage.wav,1,a,naming,106,sausage,925,correct,NA,Apr  3 2023 16:59:03,Agnieszka,1
5d593,5d593_session1_lista_naming_trial107_dummy.wav,1,a,naming,107,dummy,839,correct,NA,Apr  3 2023 16:59:10,Agnieszka,1
5d593,5d593_session1_lista_naming_trial108_bike.wav,1,a,naming,108,bike,-1,wrong_word,NA,Apr  3 2023 16:59:16,Agnieszka,1
5d593,5d593_session1_lista_naming_trial109_kite.wav,1,a,naming,109,kite,909,correct,NA,Apr  3 2023 16:59:25,Agnieszka,1
5d593,5d593_session1_lista_naming_trial110_fence.wav,1,a,naming,110,fence,960,correct,NA,Apr  3 2023 16:59:38,Agnieszka,1
5d593,5d593_session1_lista_naming_trial111_elbow.wav,1,a,naming,111,elbow,888,correct,NA,Apr  3 2023 16:59:46,Agnieszka,1
5d593,5d593_session1_lista_naming_trial112_koala.wav,1,a,naming,112,koala,810,correct,NA,Apr  3 2023 16:59:53,Agnieszka,1
5d593,5d593_session1_lista_naming_trial113_pipe.wav,1,a,naming,113,pipe,731,correct,NA,Apr  3 2023 17:00:01,Agnieszka,1
5d593,5d593_session1_lista_naming_trial114_fox.wav,1,a,naming,114,fox,699,correct,NA,Apr  3 2023 17:00:17,Agnieszka,1
5d593,5d593_session1_lista_naming_trial115_lung.wav,1,a,naming,115,lung,887,correct,NA,Apr  3 2023 17:00:24,Agnieszka,1
5d593,5d593_session1_lista_naming_trial116_zebra.wav,1,a,naming,116,zebra,683,correct,NA,Apr  3 2023 17:00:39,Agnieszka,1
5d593,5d593_session1_lista_naming_trial117_nest.wav,1,a,naming,117,nest,883,correct,NA,Apr  3 2023 17:00:50,Agnieszka,1
5d593,5d593_session1_lista_naming_trial118_camel.wav,1,a,naming,118,camel,1011,correct,NA,Apr  3 2023 17:00:57,Agnieszka,1
5d593,5d593_session1_lista_naming_trial119_heel.wav,1,a,naming,119,heel,1393,correct,NA,Apr  3 2023 17:01:05,Agnieszka,1
5d593,5d593_session1_lista_naming_trial120_candle.wav,1,a,naming,120,candle,788,correct,NA,Apr  3 2023 17:01:12,Agnieszka,1
5d593,5d593_session1_lista_naming_trial121_bear.wav,1,a,naming,121,bear,957,correct,NA,Apr  3 2023 17:01:19,Agnieszka,1
5d593,5d593_session1_lista_naming_trial122_triangle.wav,1,a,naming,122,triangle,718,correct,NA,Apr  3 2023 17:01:29,Agnieszka,1
5d593,5d593_session1_lista_naming_trial123_bottle.wav,1,a,naming,123,bottle,734,correct,NA,Apr  3 2023 17:01:38,Agnieszka,1
5d593,5d593_session1_lista_naming_trial124_pocket.wav,1,a,naming,124,pocket,1170,correct,NA,Apr  3 2023 17:01:47,Agnieszka,1
5d593,5d593_session1_lista_naming_trial125_jellyfish.wav,1,a,naming,125,jellyfish,1081,correct,NA,Apr  3 2023 17:01:53,Agnieszka,1
5d593,5d593_session1_lista_naming_trial126_fairy.wav,1,a,naming,126,fairy,753,correct,NA,Apr  3 2023 17:02:00,Agnieszka,1
5d593,5d593_session1_lista_naming_trial127_key.wav,1,a,naming,127,key,698,correct,NA,Apr  3 2023 17:02:07,Agnieszka,1
5d593,5d593_session1_lista_naming_trial128_tractor.wav,1,a,naming,128,tractor,750,correct,NA,Apr  3 2023 17:02:14,Agnieszka,1
5d593,5d593_session1_lista_naming_trial129_puppet.wav,1,a,naming,129,puppet,877,correct,NA,Apr  3 2023 17:02:21,Agnieszka,1
5d593,5d593_session1_lista_naming_trial130_rhino.wav,1,a,naming,130,rhino,766,correct,NA,Apr  3 2023 17:02:27,Agnieszka,1
5d593,5d593_session1_lista_naming_trial131_bone.wav,1,a,naming,131,bone,711,correct,NA,Apr  3 2023 17:02:35,Agnieszka,1
5d593,5d593_session1_lista_naming_trial132_beak.wav,1,a,naming,132,beak,826,correct,NA,Apr  3 2023 17:02:42,Agnieszka,1
5d593,5d593_session1_lista_naming_trial133_plumber.wav,1,a,naming,133,plumber,1103,correct,NA,Apr  3 2023 17:02:50,Agnieszka,1
5d593,5d593_session1_lista_naming_trial134_sweet.wav,1,a,naming,134,sweet,880,correct,NA,Apr  3 2023 17:03:00,Agnieszka,1
5d593,5d593_session1_lista_naming_trial135_cork.wav,1,a,naming,135,cork,810,correct,NA,Apr  3 2023 17:03:09,Agnieszka,1
5d593,5d593_session1_lista_naming_trial136_mouth.wav,1,a,naming,136,mouth,925,correct,NA,Apr  3 2023 17:03:15,Agnieszka,1
5d593,5d593_session1_lista_naming_trial137_wheelbarrow.wav,1,a,naming,137,wheelbarrow,839,correct,NA,Apr  3 2023 17:03:22,Agnieszka,1
5d593,5d593_session1_lista_naming_trial138_wall.wav,1,a,naming,138,wall,1004,correct,NA,Apr  3 2023 17:03:37,Agnieszka,1
5d593,5d593_session1_lista_naming_trial139_tray.wav,1,a,naming,139,tray,747,correct,NA,Apr  3 2023 17:03:44,Agnieszka,1
5d593,5d593_session1_lista_naming_trial140_kiwi.wav,1,a,naming,140,kiwi,727,correct,NA,Apr  3 2023 17:03:52,Agnieszka,1
5d593,5d593_session1_lista_naming_trial141_castle.wav,1,a,naming,141,castle,708,correct,NA,Apr  3 2023 17:04:00,Agnieszka,1
5d593,5d593_session1_lista_naming_trial142_mountain.wav,1,a,naming,142,mountain,747,correct,NA,Apr  3 2023 17:04:09,Agnieszka,1
5d593,5d593_session1_lista_naming_trial143_kitchen.wav,1,a,naming,143,kitchen,861,correct,NA,Apr  3 2023 17:04:19,Agnieszka,1
5d593,5d593_session1_lista_naming_trial144_teacher.wav,1,a,naming,144,teacher,880,correct,NA,Apr  3 2023 17:04:27,Agnieszka,1
5d593,5d593_session1_lista_naming_trial145_flipper.wav,1,a,naming,145,flipper,737,correct,NA,Apr  3 2023 17:04:44,Agnieszka,1
5d593,5d593_session1_lista_naming_trial146_wing.wav,1,a,naming,146,wing,817,correct,NA,Apr  3 2023 17:04:52,Agnieszka,1
5d593,5d593_session1_lista_naming_trial147_map.wav,1,a,naming,147,map,868,correct,NA,Apr  3 2023 17:05:00,Agnieszka,1
5d593,5d593_session1_lista_naming_trial148_shower.wav,1,a,naming,148,shower,737,correct,NA,Apr  3 2023 17:05:07,Agnieszka,1
5d593,5d593_session1_lista_naming_trial149_apple.wav,1,a,naming,149,apple,842,correct,NA,Apr  3 2023 17:05:14,Agnieszka,1
5d593,5d593_session1_lista_naming_trial150_net.wav,1,a,naming,150,net,842,correct,NA,Apr  3 2023 17:05:22,Agnieszka,1
