Participant_ID,File_Name,Session,List,Type_Trial,Trial_Nbr,Target,RT,Response_Trial,Comment,Date_Correction,Assessor_Name,Processed
5bbbc,5bbbc_session1_lista_naming_trial001_submarine.wav,1,a,naming,1,submarine,-1,uncertain,noisy background,Mar 16 2023 12:49:28,Agnieszka,1
5bbbc,5bbbc_session1_lista_naming_trial002_soap.wav,1,a,naming,2,soap,1132,correct,NA,Mar 16 2023 12:49:48,Agnieszka,1
5bbbc,5bbbc_session1_lista_naming_trial003_sword.wav,1,a,naming,3,sword,832,correct,NA,Mar 16 2023 12:49:57,Agnieszka,1
5bbbc,5bbbc_session1_lista_naming_trial004_knife.wav,1,a,naming,4,knife,794,correct,NA,Mar 16 2023 12:50:10,Agnieszka,1
5bbbc,5bbbc_session1_lista_naming_trial005_kiwi.wav,1,a,naming,5,kiwi,-1,wrong_word,NA,Mar 16 2023 12:50:16,Agnieszka,1
5bbbc,5bbbc_session1_lista_naming_trial006_rabbit.wav,1,a,naming,6,rabbit,925,correct,NA,Mar 16 2023 12:50:45,Agnieszka,1
5bbbc,5bbbc_session1_lista_naming_trial007_kangaroo.wav,1,a,naming,7,kangaroo,823,correct,NA,Mar 16 2023 12:50:56,Agnieszka,1
5bbbc,5bbbc_session1_lista_naming_trial008_hippo.wav,1,a,naming,8,hippo,922,correct,NA,Mar 16 2023 12:51:32,Agnieszka,1
5bbbc,5bbbc_session1_lista_naming_trial009_avocado.wav,1,a,naming,9,avocado,1065,correct,NA,Mar 16 2023 12:51:52,Agnieszka,1
5bbbc,5bbbc_session1_lista_naming_trial010_lung.wav,1,a,naming,10,lung,1004,correct,NA,Mar 16 2023 12:52:28,Agnieszka,1
5bbbc,5bbbc_session1_lista_naming_trial011_dress.wav,1,a,naming,11,dress,759,correct,NA,Mar 16 2023 12:52:59,Agnieszka,1
5bbbc,5bbbc_session1_lista_naming_trial012_fireplace.wav,1,a,naming,12,fireplace,966,correct,NA,Mar 16 2023 12:53:30,Agnieszka,1
5bbbc,5bbbc_session1_lista_naming_trial013_bib.wav,1,a,naming,13,bib,903,correct,NA,Mar 16 2023 12:53:37,Agnieszka,1
5bbbc,5bbbc_session1_lista_naming_trial014_bike.wav,1,a,naming,14,bike,1008,correct,NA,Mar 16 2023 12:53:46,Agnieszka,1
5bbbc,5bbbc_session1_lista_naming_trial015_shower.wav,1,a,naming,15,shower,1046,correct,NA,Mar 16 2023 12:54:03,Agnieszka,1
5bbbc,5bbbc_session1_lista_naming_trial016_bullet.wav,1,a,naming,16,bullet,1049,correct,NA,Mar 16 2023 12:54:30,Agnieszka,1
5bbbc,5bbbc_session1_lista_naming_trial017_bell.wav,1,a,naming,17,bell,1438,correct,NA,Mar 16 2023 12:54:44,Agnieszka,1
5bbbc,5bbbc_session1_lista_naming_trial018_pocket.wav,1,a,naming,18,pocket,1055,correct,NA,Mar 16 2023 12:54:56,Agnieszka,1
5bbbc,5bbbc_session1_lista_naming_trial019_key.wav,1,a,naming,19,key,989,correct,NA,Mar 16 2023 12:55:11,Agnieszka,1
5bbbc,5bbbc_session1_lista_naming_trial020_tongue.wav,1,a,naming,20,tongue,887,correct,NA,Mar 16 2023 12:55:26,Agnieszka,1
5bbbc,5bbbc_session1_lista_naming_trial021_star.wav,1,a,naming,21,star,766,correct,NA,Mar 16 2023 12:55:50,Agnieszka,1
5bbbc,5bbbc_session1_lista_naming_trial022_tree.wav,1,a,naming,22,tree,957,correct,NA,Mar 16 2023 12:56:03,Agnieszka,1
5bbbc,5bbbc_session1_lista_naming_trial023_owl.wav,1,a,naming,23,owl,899,correct,NA,Mar 16 2023 12:56:19,Agnieszka,1
5bbbc,5bbbc_session1_lista_naming_trial024_mountain.wav,1,a,naming,24,mountain,1046,correct,NA,Mar 16 2023 12:56:31,Agnieszka,1
5bbbc,5bbbc_session1_lista_naming_trial025_glove.wav,1,a,naming,25,glove,794,correct,NA,Mar 16 2023 12:56:50,Agnieszka,1
5bbbc,5bbbc_session1_lista_naming_trial026_zip.wav,1,a,naming,26,zip,750,correct,NA,Mar 16 2023 12:56:58,Agnieszka,1
5bbbc,5bbbc_session1_lista_naming_trial027_saw.wav,1,a,naming,27,saw,918,correct,NA,Mar 16 2023 12:57:08,Agnieszka,1
5bbbc,5bbbc_session1_lista_naming_trial028_koala.wav,1,a,naming,28,koala,1027,correct,NA,Mar 16 2023 12:57:23,Agnieszka,1
5bbbc,5bbbc_session1_lista_naming_trial029_compass.wav,1,a,naming,29,compass,766,correct,NA,Mar 16 2023 12:57:41,Agnieszka,1
5bbbc,5bbbc_session1_lista_naming_trial030_olive.wav,1,a,naming,30,olive,1122,correct,NA,Mar 16 2023 12:57:49,Agnieszka,1
5bbbc,5bbbc_session1_lista_naming_trial031_orange.wav,1,a,naming,31,orange,813,correct,NA,Mar 16 2023 12:58:11,Agnieszka,1
5bbbc,5bbbc_session1_lista_naming_trial032_windmill.wav,1,a,naming,32,windmill,757,correct,NA,Mar 16 2023 12:58:28,Agnieszka,1
5bbbc,5bbbc_session1_lista_naming_trial033_suit.wav,1,a,naming,33,suit,721,correct,NA,Mar 16 2023 12:58:42,Agnieszka,1
5bbbc,5bbbc_session1_lista_naming_trial034_mouth.wav,1,a,naming,34,mouth,1317,correct,NA,Mar 16 2023 12:58:50,Agnieszka,1
5bbbc,5bbbc_session1_lista_naming_trial035_basket.wav,1,a,naming,35,basket,778,correct,NA,Mar 16 2023 12:59:01,Agnieszka,1
5bbbc,5bbbc_session1_lista_naming_trial036_cherry.wav,1,a,naming,36,cherry,741,correct,NA,Mar 16 2023 12:59:13,Agnieszka,1
5bbbc,5bbbc_session1_lista_naming_trial037_flower.wav,1,a,naming,37,flower,877,correct,NA,Mar 16 2023 12:59:22,Agnieszka,1
5bbbc,5bbbc_session1_lista_naming_trial038_tomato.wav,1,a,naming,38,tomato,976,correct,NA,Mar 16 2023 12:59:34,Agnieszka,1
5bbbc,5bbbc_session1_lista_naming_trial039_cork.wav,1,a,naming,39,cork,829,correct,NA,Mar 16 2023 12:59:42,Agnieszka,1
5bbbc,5bbbc_session1_lista_naming_trial040_pineapple.wav,1,a,naming,40,pineapple,766,correct,NA,Mar 16 2023 12:59:50,Agnieszka,1
5bbbc,5bbbc_session1_lista_naming_trial041_triangle.wav,1,a,naming,41,triangle,718,correct,NA,Mar 16 2023 13:00:01,Agnieszka,1
5bbbc,5bbbc_session1_lista_naming_trial042_wheelbarrow.wav,1,a,naming,42,wheelbarrow,874,correct,NA,Mar 16 2023 13:00:12,Agnieszka,1
5bbbc,5bbbc_session1_lista_naming_trial043_lawnmower.wav,1,a,naming,43,lawnmower,778,correct,NA,Mar 16 2023 13:00:25,Agnieszka,1
5bbbc,5bbbc_session1_lista_naming_trial044_ruler.wav,1,a,naming,44,ruler,966,correct,NA,Mar 16 2023 13:00:36,Agnieszka,1
5bbbc,5bbbc_session1_lista_naming_trial045_nest.wav,1,a,naming,45,nest,1154,correct,NA,Mar 16 2023 13:00:44,Agnieszka,1
5bbbc,5bbbc_session1_lista_naming_trial046_drawer.wav,1,a,naming,46,drawer,778,correct,NA,Mar 16 2023 13:00:52,Agnieszka,1
5bbbc,5bbbc_session1_lista_naming_trial047_peg.wav,1,a,naming,47,peg,743,correct,NA,Mar 16 2023 13:01:01,Agnieszka,1
5bbbc,5bbbc_session1_lista_naming_trial048_shield.wav,1,a,naming,48,shield,1052,correct,NA,Mar 16 2023 13:01:09,Agnieszka,1
5bbbc,5bbbc_session1_lista_naming_trial049_scissors.wav,1,a,naming,49,scissors,909,correct,NA,Mar 16 2023 13:01:19,Agnieszka,1
5bbbc,5bbbc_session1_lista_naming_trial050_pipe.wav,1,a,naming,50,pipe,747,correct,NA,Mar 16 2023 13:01:28,Agnieszka,1
5bbbc,5bbbc_session1_lista_naming_trial051_lamp.wav,1,a,naming,51,lamp,931,correct,NA,Mar 16 2023 13:01:39,Agnieszka,1
5bbbc,5bbbc_session1_lista_naming_trial052_fridge.wav,1,a,naming,52,fridge,922,correct,NA,Mar 16 2023 13:01:57,Agnieszka,1
5bbbc,5bbbc_session1_lista_naming_trial053_judge.wav,1,a,naming,53,judge,1036,correct,NA,Mar 16 2023 13:02:05,Agnieszka,1
5bbbc,5bbbc_session1_lista_naming_trial054_donkey.wav,1,a,naming,54,donkey,820,correct,NA,Mar 16 2023 13:02:17,Agnieszka,1
5bbbc,5bbbc_session1_lista_naming_trial055_fork.wav,1,a,naming,55,fork,899,correct,NA,Mar 16 2023 13:02:27,Agnieszka,1
5bbbc,5bbbc_session1_lista_naming_trial056_fairy.wav,1,a,naming,56,fairy,893,correct,NA,Mar 16 2023 13:02:40,Agnieszka,1
5bbbc,5bbbc_session1_lista_naming_trial057_beak.wav,1,a,naming,57,beak,918,correct,NA,Mar 16 2023 13:02:49,Agnieszka,1
5bbbc,5bbbc_session1_lista_naming_trial058_squirrel.wav,1,a,naming,58,squirrel,762,correct,NA,Mar 16 2023 13:02:57,Agnieszka,1
5bbbc,5bbbc_session1_lista_naming_trial059_arm.wav,1,a,naming,59,arm,855,correct,NA,Mar 16 2023 13:03:06,Agnieszka,1
5bbbc,5bbbc_session1_lista_naming_trial060_hat.wav,1,a,naming,60,hat,696,correct,NA,Mar 16 2023 13:03:13,Agnieszka,1
5bbbc,5bbbc_session1_lista_naming_trial061_fox.wav,1,a,naming,61,fox,772,correct,NA,Mar 16 2023 13:03:21,Agnieszka,1
5bbbc,5bbbc_session1_lista_naming_trial062_train.wav,1,a,naming,62,train,963,correct,NA,Mar 16 2023 13:03:30,Agnieszka,1
5bbbc,5bbbc_session1_lista_naming_trial063_island.wav,1,a,naming,63,island,1677,correct,NA,Mar 16 2023 13:03:43,Agnieszka,1
5bbbc,5bbbc_session1_lista_naming_trial064_rhino.wav,1,a,naming,64,rhino,1036,correct,NA,Mar 16 2023 13:04:11,Agnieszka,1
5bbbc,5bbbc_session1_lista_naming_trial065_thumb.wav,1,a,naming,65,thumb,941,correct,NA,Mar 16 2023 13:04:21,Agnieszka,1
5bbbc,5bbbc_session1_lista_naming_trial066_magnet.wav,1,a,naming,66,magnet,855,correct,NA,Mar 16 2023 13:04:30,Agnieszka,1
5bbbc,5bbbc_session1_lista_naming_trial067_teacher.wav,1,a,naming,67,teacher,1043,correct,NA,Mar 16 2023 13:04:42,Agnieszka,1
5bbbc,5bbbc_session1_lista_naming_trial068_rose.wav,1,a,naming,68,rose,1657,correct,NA,Mar 16 2023 13:04:48,Agnieszka,1
5bbbc,5bbbc_session1_lista_naming_trial069_rocket.wav,1,a,naming,69,rocket,934,correct,NA,Mar 16 2023 13:05:02,Agnieszka,1
5bbbc,5bbbc_session1_lista_naming_trial070_bus.wav,1,a,naming,70,bus,1135,correct,NA,Mar 16 2023 13:05:30,Agnieszka,1
5bbbc,5bbbc_session1_lista_naming_trial071_book.wav,1,a,naming,71,book,1167,correct,NA,Mar 16 2023 13:05:38,Agnieszka,1
5bbbc,5bbbc_session1_lista_naming_trial072_queen.wav,1,a,naming,72,queen,864,correct,NA,Mar 16 2023 13:05:45,Agnieszka,1
5bbbc,5bbbc_session1_lista_naming_trial073_jellyfish.wav,1,a,naming,73,jellyfish,1113,correct,NA,Mar 16 2023 13:05:57,Agnieszka,1
5bbbc,5bbbc_session1_lista_naming_trial074_camel.wav,1,a,naming,74,camel,1081,correct,NA,Mar 16 2023 13:06:05,Agnieszka,1
5bbbc,5bbbc_session1_lista_naming_trial075_computer.wav,1,a,naming,75,computer,1094,correct,NA,Mar 16 2023 13:06:14,Agnieszka,1
5bbbc,5bbbc_session1_lista_naming_trial076_ear.wav,1,a,naming,76,ear,813,correct,NA,Mar 16 2023 13:06:24,Agnieszka,1
5bbbc,5bbbc_session1_lista_naming_trial077_tray.wav,1,a,naming,77,tray,941,correct,NA,Mar 16 2023 13:06:34,Agnieszka,1
5bbbc,5bbbc_session1_lista_naming_trial078_wing.wav,1,a,naming,78,wing,960,correct,NA,Mar 16 2023 13:06:44,Agnieszka,1
5bbbc,5bbbc_session1_lista_naming_trial079_skirt.wav,1,a,naming,79,skirt,676,correct,NA,Mar 16 2023 13:07:01,Agnieszka,1
5bbbc,5bbbc_session1_lista_naming_trial080_sausage.wav,1,a,naming,80,sausage,829,correct,NA,Mar 16 2023 13:07:10,Agnieszka,1
5bbbc,5bbbc_session1_lista_naming_trial081_bull.wav,1,a,naming,81,bull,1342,correct,NA,Mar 16 2023 13:07:31,Agnieszka,1
5bbbc,5bbbc_session1_lista_naming_trial082_tunnel.wav,1,a,naming,82,tunnel,985,correct,NA,Mar 16 2023 13:07:40,Agnieszka,1
5bbbc,5bbbc_session1_lista_naming_trial083_bracelet.wav,1,a,naming,83,bracelet,804,correct,NA,Mar 16 2023 13:07:47,Agnieszka,1
5bbbc,5bbbc_session1_lista_naming_trial084_pencil.wav,1,a,naming,84,pencil,868,correct,NA,Mar 16 2023 13:07:55,Agnieszka,1
5bbbc,5bbbc_session1_lista_naming_trial085_candle.wav,1,a,naming,85,candle,724,correct,NA,Mar 16 2023 13:08:03,Agnieszka,1
5bbbc,5bbbc_session1_lista_naming_trial086_coat.wav,1,a,naming,86,coat,1237,correct,NA,Mar 16 2023 13:08:10,Agnieszka,1
5bbbc,5bbbc_session1_lista_naming_trial087_tractor.wav,1,a,naming,87,tractor,772,correct,NA,Mar 16 2023 13:08:17,Agnieszka,1
5bbbc,5bbbc_session1_lista_naming_trial088_bear.wav,1,a,naming,88,bear,1151,correct,NA,Mar 16 2023 13:08:28,Agnieszka,1
5bbbc,5bbbc_session1_lista_naming_trial089_sun.wav,1,a,naming,89,sun,727,correct,NA,Mar 16 2023 13:08:38,Agnieszka,1
5bbbc,5bbbc_session1_lista_naming_trial090_tattoo.wav,1,a,naming,90,tattoo,995,correct,NA,Mar 16 2023 13:08:53,Agnieszka,1
5bbbc,5bbbc_session1_lista_naming_trial091_apple.wav,1,a,naming,91,apple,823,correct,NA,Mar 16 2023 13:09:03,Agnieszka,1
5bbbc,5bbbc_session1_lista_naming_trial092_potato.wav,1,a,naming,92,potato,753,correct,NA,Mar 16 2023 13:09:10,Agnieszka,1
5bbbc,5bbbc_session1_lista_naming_trial093_net.wav,1,a,naming,93,net,740,correct,NA,Mar 16 2023 13:09:19,Agnieszka,1
5bbbc,5bbbc_session1_lista_naming_trial094_tap.wav,1,a,naming,94,tap,896,correct,NA,Mar 16 2023 13:09:28,Agnieszka,1
5bbbc,5bbbc_session1_lista_naming_trial095_flag.wav,1,a,naming,95,flag,778,correct,NA,Mar 16 2023 13:09:36,Agnieszka,1
5bbbc,5bbbc_session1_lista_naming_trial096_drum.wav,1,a,naming,96,drum,747,correct,NA,Mar 16 2023 13:09:45,Agnieszka,1
5bbbc,5bbbc_session1_lista_naming_trial097_heel.wav,1,a,naming,97,heel,1215,correct,NA,Mar 16 2023 13:09:53,Agnieszka,1
5bbbc,5bbbc_session1_lista_naming_trial098_robot.wav,1,a,naming,98,robot,766,correct,NA,Mar 16 2023 13:10:02,Agnieszka,1
5bbbc,5bbbc_session1_lista_naming_trial099_limo.wav,1,a,naming,99,limo,925,correct,NA,Mar 16 2023 13:10:11,Agnieszka,1
5bbbc,5bbbc_session1_lista_naming_trial100_swan.wav,1,a,naming,100,swan,791,correct,NA,Mar 16 2023 13:10:20,Agnieszka,1
5bbbc,5bbbc_session1_lista_naming_trial101_bench.wav,1,a,naming,101,bench,852,correct,NA,Mar 16 2023 13:10:29,Agnieszka,1
5bbbc,5bbbc_session1_lista_naming_trial102_butterfly.wav,1,a,naming,102,butterfly,782,correct,NA,Mar 16 2023 13:10:37,Agnieszka,1
5bbbc,5bbbc_session1_lista_naming_trial103_helicopter.wav,1,a,naming,103,helicopter,1215,correct,NA,Mar 16 2023 13:10:48,Agnieszka,1
5bbbc,5bbbc_session1_lista_naming_trial104_kite.wav,1,a,naming,104,kite,1196,correct,NA,Mar 16 2023 13:11:05,Agnieszka,1
5bbbc,5bbbc_session1_lista_naming_trial105_goat.wav,1,a,naming,105,goat,836,correct,NA,Mar 16 2023 13:11:18,Agnieszka,1
5bbbc,5bbbc_session1_lista_naming_trial106_tie.wav,1,a,naming,106,tie,985,correct,NA,Mar 16 2023 13:11:29,Agnieszka,1
5bbbc,5bbbc_session1_lista_naming_trial107_kitchen.wav,1,a,naming,107,kitchen,1030,correct,NA,Mar 16 2023 13:11:37,Agnieszka,1
5bbbc,5bbbc_session1_lista_naming_trial108_castle.wav,1,a,naming,108,castle,912,correct,NA,Mar 16 2023 13:11:47,Agnieszka,1
5bbbc,5bbbc_session1_lista_naming_trial109_map.wav,1,a,naming,109,map,864,correct,NA,Mar 16 2023 13:11:57,Agnieszka,1
5bbbc,5bbbc_session1_lista_naming_trial110_puppet.wav,1,a,naming,110,puppet,979,correct,NA,Mar 16 2023 13:12:04,Agnieszka,1
5bbbc,5bbbc_session1_lista_naming_trial111_ghost.wav,1,a,naming,111,ghost,839,correct,NA,Mar 16 2023 13:12:14,Agnieszka,1
5bbbc,5bbbc_session1_lista_naming_trial112_pepper.wav,1,a,naming,112,pepper,848,correct,NA,Mar 16 2023 13:12:22,Agnieszka,1
5bbbc,5bbbc_session1_lista_naming_trial113_tiger.wav,1,a,naming,113,tiger,1001,correct,NA,Mar 16 2023 13:12:31,Agnieszka,1
5bbbc,5bbbc_session1_lista_naming_trial114_wave.wav,1,a,naming,114,wave,1240,correct,NA,Mar 16 2023 13:12:46,Agnieszka,1
5bbbc,5bbbc_session1_lista_naming_trial115_clown.wav,1,a,naming,115,clown,874,correct,NA,Mar 16 2023 13:12:57,Agnieszka,1
5bbbc,5bbbc_session1_lista_naming_trial116_snake.wav,1,a,naming,116,snake,957,correct,NA,Mar 16 2023 13:13:05,Agnieszka,1
5bbbc,5bbbc_session1_lista_naming_trial117_arrow.wav,1,a,naming,117,arrow,947,correct,NA,Mar 16 2023 13:13:16,Agnieszka,1
5bbbc,5bbbc_session1_lista_naming_trial118_butter.wav,1,a,naming,118,butter,922,correct,NA,Mar 16 2023 13:13:32,Agnieszka,1
5bbbc,5bbbc_session1_lista_naming_trial119_boxer.wav,1,a,naming,119,boxer,1266,correct,NA,Mar 16 2023 13:13:40,Agnieszka,1
5bbbc,5bbbc_session1_lista_naming_trial120_pear.wav,1,a,naming,120,pear,871,correct,NA,Mar 16 2023 13:13:50,Agnieszka,1
5bbbc,5bbbc_session1_lista_naming_trial121_doughnut.wav,1,a,naming,121,doughnut,1469,correct,NA,Mar 16 2023 13:14:03,Agnieszka,1
5bbbc,5bbbc_session1_lista_naming_trial122_mermaid.wav,1,a,naming,122,mermaid,918,correct,NA,Mar 16 2023 13:14:17,Agnieszka,1
5bbbc,5bbbc_session1_lista_naming_trial123_elbow.wav,1,a,naming,123,elbow,928,correct,NA,Mar 16 2023 13:14:29,Agnieszka,1
5bbbc,5bbbc_session1_lista_naming_trial124_dice.wav,1,a,naming,124,dice,912,correct,NA,Mar 16 2023 13:14:39,Agnieszka,1
5bbbc,5bbbc_session1_lista_naming_trial125_gym.wav,1,a,naming,125,gym,1164,correct,NA,Mar 16 2023 13:14:49,Agnieszka,1
5bbbc,5bbbc_session1_lista_naming_trial126_curtain.wav,1,a,naming,126,curtain,794,correct,NA,Mar 16 2023 13:15:00,Agnieszka,1
5bbbc,5bbbc_session1_lista_naming_trial127_battery.wav,1,a,naming,127,battery,782,correct,NA,Mar 16 2023 13:15:07,Agnieszka,1
5bbbc,5bbbc_session1_lista_naming_trial128_bottle.wav,1,a,naming,128,bottle,817,correct,NA,Mar 16 2023 13:15:16,Agnieszka,1
5bbbc,5bbbc_session1_lista_naming_trial129_caterpillar.wav,1,a,naming,129,caterpillar,804,correct,NA,Mar 16 2023 13:15:28,Agnieszka,1
5bbbc,5bbbc_session1_lista_naming_trial130_zebra.wav,1,a,naming,130,zebra,995,correct,NA,Mar 16 2023 13:15:36,Agnieszka,1
5bbbc,5bbbc_session1_lista_naming_trial131_sweet.wav,1,a,naming,131,sweet,1049,correct,NA,Mar 16 2023 13:15:43,Agnieszka,1
5bbbc,5bbbc_session1_lista_naming_trial132_bone.wav,1,a,naming,132,bone,909,correct,NA,Mar 16 2023 13:15:51,Agnieszka,1
5bbbc,5bbbc_session1_lista_naming_trial133_flipper.wav,1,a,naming,133,flipper,1333,correct,NA,Mar 16 2023 13:16:05,Agnieszka,1
5bbbc,5bbbc_session1_lista_naming_trial134_tambourine.wav,1,a,naming,134,tambourine,1145,correct,NA,Mar 16 2023 13:16:13,Agnieszka,1
5bbbc,5bbbc_session1_lista_naming_trial135_doctor.wav,1,a,naming,135,doctor,1033,correct,NA,Mar 16 2023 13:16:28,Agnieszka,1
5bbbc,5bbbc_session1_lista_naming_trial136_comb.wav,1,a,naming,136,comb,912,correct,NA,Mar 16 2023 13:16:51,Agnieszka,1
5bbbc,5bbbc_session1_lista_naming_trial137_carrot.wav,1,a,naming,137,carrot,778,correct,NA,Mar 16 2023 13:17:08,Agnieszka,1
5bbbc,5bbbc_session1_lista_naming_trial138_medal.wav,1,a,naming,138,medal,766,correct,NA,Mar 16 2023 13:17:16,Agnieszka,1
5bbbc,5bbbc_session1_lista_naming_trial139_plumber.wav,1,a,naming,139,plumber,1090,correct,NA,Mar 16 2023 13:17:24,Agnieszka,1
5bbbc,5bbbc_session1_lista_naming_trial140_lighter.wav,1,a,naming,140,lighter,832,correct,NA,Mar 16 2023 13:17:37,Agnieszka,1
5bbbc,5bbbc_session1_lista_naming_trial141_dummy.wav,1,a,naming,141,dummy,872,correct,NA,Mar 16 2023 13:17:44,Agnieszka,1
5bbbc,5bbbc_session1_lista_naming_trial142_crab.wav,1,a,naming,142,crab,785,correct,NA,Mar 16 2023 13:17:53,Agnieszka,1
5bbbc,5bbbc_session1_lista_naming_trial143_circle.wav,1,a,naming,143,circle,782,correct,NA,Mar 16 2023 13:18:00,Agnieszka,1
5bbbc,5bbbc_session1_lista_naming_trial144_fence.wav,1,a,naming,144,fence,1027,correct,NA,Mar 16 2023 13:18:09,Agnieszka,1
5bbbc,5bbbc_session1_lista_naming_trial145_wall.wav,1,a,naming,145,wall,804,correct,NA,Mar 16 2023 13:18:20,Agnieszka,1
5bbbc,5bbbc_session1_lista_naming_trial146_shoe.wav,1,a,naming,146,shoe,842,correct,NA,Mar 16 2023 13:18:28,Agnieszka,1
5bbbc,5bbbc_session1_lista_naming_trial147_onion.wav,1,a,naming,147,onion,823,correct,NA,Mar 16 2023 13:18:36,Agnieszka,1
5bbbc,5bbbc_session1_lista_naming_trial148_whale.wav,1,a,naming,148,whale,1587,correct,NA,Mar 16 2023 13:18:42,Agnieszka,1
5bbbc,5bbbc_session1_lista_naming_trial149_suitcase.wav,1,a,naming,149,suitcase,820,correct,NA,Mar 16 2023 13:19:41,Agnieszka,1
5bbbc,5bbbc_session1_lista_naming_trial150_lighthouse.wav,1,a,naming,150,lighthouse,877,correct,NA,Mar 16 2023 13:19:48,Agnieszka,1
