Participant_ID,File_Name,Session,List,Type_Trial,Trial_Nbr,Target,RT,Response_Trial,Comment,Date_Correction,Assessor_Name,Processed
6048d,6048d_session1_lista_naming_trial001_pineapple.wav,1,a,naming,1,pineapple,670,correct,NA,Mar 14 2023 13:48:24,Agnieszka,1
6048d,6048d_session1_lista_naming_trial002_butterfly.wav,1,a,naming,2,butterfly,692,correct,NA,Mar 14 2023 13:48:34,Agnieszka,1
6048d,6048d_session1_lista_naming_trial003_kiwi.wav,1,a,naming,3,kiwi,794,correct,NA,Mar 14 2023 13:48:42,Agnieszka,1
6048d,6048d_session1_lista_naming_trial004_tray.wav,1,a,naming,4,tray,753,correct,NA,Mar 14 2023 13:48:56,Agnieszka,1
6048d,6048d_session1_lista_naming_trial005_peg.wav,1,a,naming,5,peg,801,correct,NA,Mar 14 2023 13:49:04,Agnieszka,1
6048d,6048d_session1_lista_naming_trial006_fairy.wav,1,a,naming,6,fairy,759,correct,NA,Mar 14 2023 13:49:13,Agnieszka,1
6048d,6048d_session1_lista_naming_trial007_medal.wav,1,a,naming,7,medal,772,correct,NA,Mar 14 2023 13:49:21,Agnieszka,1
6048d,6048d_session1_lista_naming_trial008_skirt.wav,1,a,naming,8,skirt,750,correct,NA,Mar 14 2023 13:49:30,Agnieszka,1
6048d,6048d_session1_lista_naming_trial009_rocket.wav,1,a,naming,9,rocket,1122,correct,NA,Mar 14 2023 13:49:38,Agnieszka,1
6048d,6048d_session1_lista_naming_trial010_pencil.wav,1,a,naming,10,pencil,954,correct,NA,Mar 14 2023 13:49:45,Agnieszka,1
6048d,6048d_session1_lista_naming_trial011_jellyfish.wav,1,a,naming,11,jellyfish,769,correct,NA,Mar 14 2023 13:49:56,Agnieszka,1
6048d,6048d_session1_lista_naming_trial012_tunnel.wav,1,a,naming,12,tunnel,874,correct,NA,Mar 14 2023 13:50:09,Agnieszka,1
6048d,6048d_session1_lista_naming_trial013_pocket.wav,1,a,naming,13,pocket,852,correct,NA,Mar 14 2023 13:50:18,Agnieszka,1
6048d,6048d_session1_lista_naming_trial014_bracelet.wav,1,a,naming,14,bracelet,979,correct,NA,Mar 14 2023 13:50:26,Agnieszka,1
6048d,6048d_session1_lista_naming_trial015_ruler.wav,1,a,naming,15,ruler,743,correct,NA,Mar 14 2023 13:50:40,Agnieszka,1
6048d,6048d_session1_lista_naming_trial016_cherry.wav,1,a,naming,16,cherry,820,correct,NA,Mar 14 2023 13:50:49,Agnieszka,1
6048d,6048d_session1_lista_naming_trial017_arm.wav,1,a,naming,17,arm,826,correct,NA,Mar 14 2023 13:51:03,Agnieszka,1
6048d,6048d_session1_lista_naming_trial018_wall.wav,1,a,naming,18,wall,906,correct,NA,Mar 14 2023 13:51:13,Agnieszka,1
6048d,6048d_session1_lista_naming_trial019_thumb.wav,1,a,naming,19,thumb,619,correct,NA,Mar 14 2023 13:51:21,Agnieszka,1
6048d,6048d_session1_lista_naming_trial020_donkey.wav,1,a,naming,20,donkey,705,correct,NA,Mar 14 2023 13:51:29,Agnieszka,1
6048d,6048d_session1_lista_naming_trial021_ghost.wav,1,a,naming,21,ghost,673,correct,NA,Mar 14 2023 13:51:37,Agnieszka,1
6048d,6048d_session1_lista_naming_trial022_wheelbarrow.wav,1,a,naming,22,wheelbarrow,801,correct,NA,Mar 14 2023 13:51:45,Agnieszka,1
6048d,6048d_session1_lista_naming_trial023_drum.wav,1,a,naming,23,drum,724,correct,NA,Mar 14 2023 13:51:54,Agnieszka,1
6048d,6048d_session1_lista_naming_trial024_bone.wav,1,a,naming,24,bone,845,correct,NA,Mar 14 2023 13:52:05,Agnieszka,1
6048d,6048d_session1_lista_naming_trial025_mouth.wav,1,a,naming,25,mouth,845,correct,NA,Mar 14 2023 13:52:13,Agnieszka,1
6048d,6048d_session1_lista_naming_trial026_star.wav,1,a,naming,26,star,562,correct,NA,Mar 14 2023 13:52:21,Agnieszka,1
6048d,6048d_session1_lista_naming_trial027_book.wav,1,a,naming,27,book,759,correct,NA,Mar 14 2023 13:52:31,Agnieszka,1
6048d,6048d_session1_lista_naming_trial028_tap.wav,1,a,naming,28,tap,740,correct,NA,Mar 14 2023 13:52:40,Agnieszka,1
6048d,6048d_session1_lista_naming_trial029_key.wav,1,a,naming,29,key,756,correct,NA,Mar 14 2023 13:52:49,Agnieszka,1
6048d,6048d_session1_lista_naming_trial030_candle.wav,1,a,naming,30,candle,1635,correct,NA,Mar 14 2023 13:53:02,Agnieszka,1
6048d,6048d_session1_lista_naming_trial031_whale.wav,1,a,naming,31,whale,632,correct,NA,Mar 14 2023 13:53:11,Agnieszka,1
6048d,6048d_session1_lista_naming_trial032_rose.wav,1,a,naming,32,rose,718,correct,NA,Mar 14 2023 13:53:18,Agnieszka,1
6048d,6048d_session1_lista_naming_trial033_doughnut.wav,1,a,naming,33,doughnut,756,correct,NA,Mar 14 2023 13:53:35,Agnieszka,1
6048d,6048d_session1_lista_naming_trial034_cork.wav,1,a,naming,34,cork,925,correct,NA,Mar 14 2023 13:53:46,Agnieszka,1
6048d,6048d_session1_lista_naming_trial035_clown.wav,1,a,naming,35,clown,855,correct,NA,Mar 14 2023 13:54:00,Agnieszka,1
6048d,6048d_session1_lista_naming_trial036_kitchen.wav,1,a,naming,36,kitchen,909,correct,NA,Mar 14 2023 13:54:13,Agnieszka,1
6048d,6048d_session1_lista_naming_trial037_rabbit.wav,1,a,naming,37,rabbit,673,correct,NA,Mar 14 2023 13:54:27,Agnieszka,1
6048d,6048d_session1_lista_naming_trial038_bike.wav,1,a,naming,38,bike,-1,wrong_word,NA,Mar 14 2023 13:54:33,Agnieszka,1
6048d,6048d_session1_lista_naming_trial039_plumber.wav,1,a,naming,39,plumber,832,correct,NA,Mar 14 2023 13:54:41,Agnieszka,1
6048d,6048d_session1_lista_naming_trial040_helicopter.wav,1,a,naming,40,helicopter,785,correct,NA,Mar 14 2023 13:54:52,Agnieszka,1
6048d,6048d_session1_lista_naming_trial041_submarine.wav,1,a,naming,41,submarine,804,correct,NA,Mar 14 2023 13:55:01,Agnieszka,1
6048d,6048d_session1_lista_naming_trial042_onion.wav,1,a,naming,42,onion,775,correct,NA,Mar 14 2023 13:55:13,Agnieszka,1
6048d,6048d_session1_lista_naming_trial043_tree.wav,1,a,naming,43,tree,645,correct,NA,Mar 14 2023 13:55:22,Agnieszka,1
6048d,6048d_session1_lista_naming_trial044_zip.wav,1,a,naming,44,zip,836,correct,NA,Mar 14 2023 13:55:30,Agnieszka,1
6048d,6048d_session1_lista_naming_trial045_sun.wav,1,a,naming,45,sun,727,correct,NA,Mar 14 2023 13:55:37,Agnieszka,1
6048d,6048d_session1_lista_naming_trial046_shoe.wav,1,a,naming,46,shoe,874,correct,NA,Mar 14 2023 13:55:47,Agnieszka,1
6048d,6048d_session1_lista_naming_trial047_pepper.wav,1,a,naming,47,pepper,766,correct,NA,Mar 14 2023 13:55:57,Agnieszka,1
6048d,6048d_session1_lista_naming_trial048_doctor.wav,1,a,naming,48,doctor,906,correct,NA,Mar 14 2023 13:56:09,Agnieszka,1
6048d,6048d_session1_lista_naming_trial049_mermaid.wav,1,a,naming,49,mermaid,823,correct,NA,Mar 14 2023 13:56:38,Agnieszka,1
6048d,6048d_session1_lista_naming_trial050_tiger.wav,1,a,naming,50,tiger,762,correct,NA,Mar 14 2023 13:56:54,Agnieszka,1
6048d,6048d_session1_lista_naming_trial051_basket.wav,1,a,naming,51,basket,934,correct,NA,Mar 14 2023 13:57:02,Agnieszka,1
6048d,6048d_session1_lista_naming_trial052_carrot.wav,1,a,naming,52,carrot,762,correct,NA,Mar 14 2023 13:57:15,Agnieszka,1
6048d,6048d_session1_lista_naming_trial053_fox.wav,1,a,naming,53,fox,912,correct,NA,Mar 14 2023 13:57:21,Agnieszka,1
6048d,6048d_session1_lista_naming_trial054_queen.wav,1,a,naming,54,queen,957,correct,NA,Mar 14 2023 13:57:31,Agnieszka,1
6048d,6048d_session1_lista_naming_trial055_island.wav,1,a,naming,55,island,1126,correct,NA,Mar 14 2023 13:57:42,Agnieszka,1
6048d,6048d_session1_lista_naming_trial056_windmill.wav,1,a,naming,56,windmill,683,correct,NA,Mar 14 2023 13:57:54,Agnieszka,1
6048d,6048d_session1_lista_naming_trial057_flower.wav,1,a,naming,57,flower,727,correct,NA,Mar 14 2023 13:58:16,Agnieszka,1
6048d,6048d_session1_lista_naming_trial058_kangaroo.wav,1,a,naming,58,kangaroo,1724,correct,NA,Mar 14 2023 13:58:29,Agnieszka,1
6048d,6048d_session1_lista_naming_trial059_hippo.wav,1,a,naming,59,hippo,-1,wrong_word,NA,Mar 14 2023 13:58:35,Agnieszka,1
6048d,6048d_session1_lista_naming_trial060_wing.wav,1,a,naming,60,wing,1126,correct,NA,Mar 14 2023 13:58:46,Agnieszka,1
6048d,6048d_session1_lista_naming_trial061_camel.wav,1,a,naming,61,camel,854,correct,NA,Mar 14 2023 13:58:57,Agnieszka,1
6048d,6048d_session1_lista_naming_trial062_kite.wav,1,a,naming,62,kite,686,correct,NA,Mar 14 2023 13:59:12,Agnieszka,1
6048d,6048d_session1_lista_naming_trial063_arrow.wav,1,a,naming,63,arrow,1654,correct,NA,Mar 14 2023 13:59:22,Agnieszka,1
6048d,6048d_session1_lista_naming_trial064_owl.wav,1,a,naming,64,owl,1014,correct,NA,Mar 14 2023 13:59:30,Agnieszka,1
6048d,6048d_session1_lista_naming_trial065_teacher.wav,1,a,naming,65,teacher,1297,correct,NA,Mar 14 2023 13:59:43,Agnieszka,1
6048d,6048d_session1_lista_naming_trial066_tongue.wav,1,a,naming,66,tongue,1046,correct,NA,Mar 14 2023 13:59:51,Agnieszka,1
6048d,6048d_session1_lista_naming_trial067_lighter.wav,1,a,naming,67,lighter,1240,correct,NA,Mar 14 2023 14:00:01,Agnieszka,1
6048d,6048d_session1_lista_naming_trial068_goat.wav,1,a,naming,68,goat,893,correct,NA,Mar 14 2023 14:00:10,Agnieszka,1
6048d,6048d_session1_lista_naming_trial069_fridge.wav,1,a,naming,69,fridge,896,correct,NA,Mar 14 2023 14:00:18,Agnieszka,1
6048d,6048d_session1_lista_naming_trial070_circle.wav,1,a,naming,70,circle,766,correct,NA,Mar 14 2023 14:00:27,Agnieszka,1
6048d,6048d_session1_lista_naming_trial071_tattoo.wav,1,a,naming,71,tattoo,899,correct,NA,Mar 14 2023 14:00:34,Agnieszka,1
6048d,6048d_session1_lista_naming_trial072_train.wav,1,a,naming,72,train,836,correct,NA,Mar 14 2023 14:00:43,Agnieszka,1
6048d,6048d_session1_lista_naming_trial073_lighthouse.wav,1,a,naming,73,lighthouse,966,correct,NA,Mar 14 2023 14:00:51,Agnieszka,1
6048d,6048d_session1_lista_naming_trial074_zebra.wav,1,a,naming,74,zebra,947,correct,NA,Mar 14 2023 14:01:57,Agnieszka,1
6048d,6048d_session1_lista_naming_trial075_squirrel.wav,1,a,naming,75,squirrel,734,correct,NA,Mar 14 2023 14:02:05,Agnieszka,1
6048d,6048d_session1_lista_naming_trial076_sweet.wav,1,a,naming,76,sweet,-1,wrong_word,NA,Mar 14 2023 14:02:11,Agnieszka,1
6048d,6048d_session1_lista_naming_trial077_limo.wav,1,a,naming,77,limo,877,correct,NA,Mar 14 2023 14:02:18,Agnieszka,1
6048d,6048d_session1_lista_naming_trial078_tambourine.wav,1,a,naming,78,tambourine,686,correct,NA,Mar 14 2023 14:02:29,Agnieszka,1
6048d,6048d_session1_lista_naming_trial079_bear.wav,1,a,naming,79,bear,893,correct,NA,Mar 14 2023 14:06:07,Agnieszka,1
6048d,6048d_session1_lista_naming_trial080_nest.wav,1,a,naming,80,nest,944,correct,NA,Mar 14 2023 14:06:14,Agnieszka,1
6048d,6048d_session1_lista_naming_trial081_beak.wav,1,a,naming,81,beak,934,correct,NA,Mar 14 2023 14:06:21,Agnieszka,1
6048d,6048d_session1_lista_naming_trial082_lawnmower.wav,1,a,naming,82,lawnmower,826,correct,NA,Mar 14 2023 14:06:31,Agnieszka,1
6048d,6048d_session1_lista_naming_trial083_fork.wav,1,a,naming,83,fork,724,correct,NA,Mar 14 2023 14:06:39,Agnieszka,1
6048d,6048d_session1_lista_naming_trial084_suit.wav,1,a,naming,84,suit,753,correct,NA,Mar 14 2023 14:06:47,Agnieszka,1
6048d,6048d_session1_lista_naming_trial085_rhino.wav,1,a,naming,85,rhino,1492,correct,NA,Mar 14 2023 14:06:58,Agnieszka,1
6048d,6048d_session1_lista_naming_trial086_dress.wav,1,a,naming,86,dress,1297,correct,NA,Mar 14 2023 14:07:21,Agnieszka,1
6048d,6048d_session1_lista_naming_trial087_tomato.wav,1,a,naming,87,tomato,954,correct,NA,Mar 14 2023 14:07:27,Agnieszka,1
6048d,6048d_session1_lista_naming_trial088_ear.wav,1,a,naming,88,ear,753,correct,NA,Mar 14 2023 14:07:37,Agnieszka,1
6048d,6048d_session1_lista_naming_trial089_lamp.wav,1,a,naming,89,lamp,1020,correct,NA,Mar 14 2023 14:07:46,Agnieszka,1
6048d,6048d_session1_lista_naming_trial090_drawer.wav,1,a,naming,90,drawer,931,correct,NA,Mar 14 2023 14:07:54,Agnieszka,1
6048d,6048d_session1_lista_naming_trial091_castle.wav,1,a,naming,91,castle,1008,correct,NA,Mar 14 2023 14:08:08,Agnieszka,1
6048d,6048d_session1_lista_naming_trial092_pipe.wav,1,a,naming,92,pipe,762,correct,NA,Mar 14 2023 14:08:17,Agnieszka,1
6048d,6048d_session1_lista_naming_trial093_magnet.wav,1,a,naming,93,magnet,925,correct,NA,Mar 14 2023 14:08:24,Agnieszka,1
6048d,6048d_session1_lista_naming_trial094_swan.wav,1,a,naming,94,swan,769,correct,NA,Mar 14 2023 14:08:37,Agnieszka,1
6048d,6048d_session1_lista_naming_trial095_butter.wav,1,a,naming,95,butter,925,correct,NA,Mar 14 2023 14:08:46,Agnieszka,1
6048d,6048d_session1_lista_naming_trial096_sword.wav,1,a,naming,96,sword,731,correct,NA,Mar 14 2023 14:08:59,Agnieszka,1
6048d,6048d_session1_lista_naming_trial097_judge.wav,1,a,naming,97,judge,-1,no_resp,NA,Mar 14 2023 14:09:05,Agnieszka,1
6048d,6048d_session1_lista_naming_trial098_map.wav,1,a,naming,98,map,1036,correct,NA,Mar 14 2023 14:09:13,Agnieszka,1
6048d,6048d_session1_lista_naming_trial099_bull.wav,1,a,naming,99,bull,1339,correct,NA,Mar 14 2023 14:09:19,Agnieszka,1
6048d,6048d_session1_lista_naming_trial100_apple.wav,1,a,naming,100,apple,842,correct,NA,Mar 14 2023 14:09:33,Agnieszka,1
6048d,6048d_session1_lista_naming_trial101_fireplace.wav,1,a,naming,101,fireplace,724,correct,NA,Mar 14 2023 14:09:44,Agnieszka,1
6048d,6048d_session1_lista_naming_trial102_knife.wav,1,a,naming,102,knife,686,correct,NA,Mar 14 2023 14:09:54,Agnieszka,1
6048d,6048d_session1_lista_naming_trial103_saw.wav,1,a,naming,103,saw,883,correct,NA,Mar 14 2023 14:10:02,Agnieszka,1
6048d,6048d_session1_lista_naming_trial104_flipper.wav,1,a,naming,104,flipper,826,correct,NA,Mar 14 2023 14:10:09,Agnieszka,1
6048d,6048d_session1_lista_naming_trial105_gym.wav,1,a,naming,105,gym,896,correct,NA,Mar 14 2023 14:10:18,Agnieszka,1
6048d,6048d_session1_lista_naming_trial106_tie.wav,1,a,naming,106,tie,852,correct,NA,Mar 14 2023 14:10:26,Agnieszka,1
6048d,6048d_session1_lista_naming_trial107_heel.wav,1,a,naming,107,heel,-1,disfluency,NA,Mar 14 2023 14:10:33,Agnieszka,1
6048d,6048d_session1_lista_naming_trial108_koala.wav,1,a,naming,108,koala,864,correct,NA,Mar 14 2023 14:11:20,Agnieszka,1
6048d,6048d_session1_lista_naming_trial109_tractor.wav,1,a,naming,109,tractor,715,correct,NA,Mar 14 2023 14:11:34,Agnieszka,1
6048d,6048d_session1_lista_naming_trial110_compass.wav,1,a,naming,110,compass,861,correct,NA,Mar 14 2023 14:11:44,Agnieszka,1
6048d,6048d_session1_lista_naming_trial111_battery.wav,1,a,naming,111,battery,855,correct,NA,Mar 14 2023 14:11:54,Agnieszka,1
6048d,6048d_session1_lista_naming_trial112_elbow.wav,1,a,naming,112,elbow,871,correct,NA,Mar 14 2023 14:12:07,Agnieszka,1
6048d,6048d_session1_lista_naming_trial113_scissors.wav,1,a,naming,113,scissors,762,correct,NA,Mar 14 2023 14:12:17,Agnieszka,1
6048d,6048d_session1_lista_naming_trial114_bottle.wav,1,a,naming,114,bottle,756,correct,NA,Mar 14 2023 14:12:30,Agnieszka,1
6048d,6048d_session1_lista_naming_trial115_sausage.wav,1,a,naming,115,sausage,1584,correct,NA,Mar 14 2023 14:12:37,Agnieszka,1
6048d,6048d_session1_lista_naming_trial116_suitcase.wav,1,a,naming,116,suitcase,826,correct,NA,Mar 14 2023 14:12:45,Agnieszka,1
6048d,6048d_session1_lista_naming_trial117_puppet.wav,1,a,naming,117,puppet,1454,correct,NA,Mar 14 2023 14:12:52,Agnieszka,1
6048d,6048d_session1_lista_naming_trial118_fence.wav,1,a,naming,118,fence,670,correct,NA,Mar 14 2023 14:12:59,Agnieszka,1
6048d,6048d_session1_lista_naming_trial119_caterpillar.wav,1,a,naming,119,caterpillar,832,correct,NA,Mar 14 2023 14:13:08,Agnieszka,1
6048d,6048d_session1_lista_naming_trial120_avocado.wav,1,a,naming,120,avocado,982,correct,NA,Mar 14 2023 14:13:16,Agnieszka,1
6048d,6048d_session1_lista_naming_trial121_curtain.wav,1,a,naming,121,curtain,-1,wrong_word,NA,Mar 14 2023 14:13:25,Agnieszka,1
6048d,6048d_session1_lista_naming_trial122_dice.wav,1,a,naming,122,dice,769,correct,NA,Mar 14 2023 14:13:32,Agnieszka,1
6048d,6048d_session1_lista_naming_trial123_bell.wav,1,a,naming,123,bell,794,correct,NA,Mar 14 2023 14:13:40,Agnieszka,1
6048d,6048d_session1_lista_naming_trial124_coat.wav,1,a,naming,124,coat,1062,correct,NA,Mar 14 2023 14:13:52,Agnieszka,1
6048d,6048d_session1_lista_naming_trial125_dummy.wav,1,a,naming,125,dummy,1036,correct,NA,Mar 14 2023 14:14:03,Agnieszka,1
6048d,6048d_session1_lista_naming_trial126_wave.wav,1,a,naming,126,wave,903,correct,NA,Mar 14 2023 14:15:03,Agnieszka,1
6048d,6048d_session1_lista_naming_trial127_bullet.wav,1,a,naming,127,bullet,944,correct,NA,Mar 14 2023 14:15:14,Agnieszka,1
6048d,6048d_session1_lista_naming_trial128_bib.wav,1,a,naming,128,bib,817,correct,NA,Mar 14 2023 14:15:27,Agnieszka,1
6048d,6048d_session1_lista_naming_trial129_bench.wav,1,a,naming,129,bench,1164,correct,NA,Mar 14 2023 14:15:42,Agnieszka,1
6048d,6048d_session1_lista_naming_trial130_triangle.wav,1,a,naming,130,triangle,753,correct,NA,Mar 14 2023 14:15:55,Agnieszka,1
6048d,6048d_session1_lista_naming_trial131_robot.wav,1,a,naming,131,robot,832,correct,NA,Mar 14 2023 14:16:05,Agnieszka,1
6048d,6048d_session1_lista_naming_trial132_bus.wav,1,a,naming,132,bus,1017,correct,NA,Mar 14 2023 14:16:21,Agnieszka,1
6048d,6048d_session1_lista_naming_trial133_snake.wav,1,a,naming,133,snake,797,correct,NA,Mar 14 2023 14:16:31,Agnieszka,1
6048d,6048d_session1_lista_naming_trial134_net.wav,1,a,naming,134,net,1218,correct,NA,Mar 14 2023 14:16:39,Agnieszka,1
6048d,6048d_session1_lista_naming_trial135_olive.wav,1,a,naming,135,olive,931,correct,NA,Mar 14 2023 14:16:53,Agnieszka,1
6048d,6048d_session1_lista_naming_trial136_computer.wav,1,a,naming,136,computer,1161,correct,NA,Mar 14 2023 14:17:04,Agnieszka,1
6048d,6048d_session1_lista_naming_trial137_crab.wav,1,a,naming,137,crab,969,correct,NA,Mar 14 2023 14:17:15,Agnieszka,1
6048d,6048d_session1_lista_naming_trial138_soap.wav,1,a,naming,138,soap,1050,correct,NA,Mar 14 2023 14:17:24,Agnieszka,1
6048d,6048d_session1_lista_naming_trial139_shower.wav,1,a,naming,139,shower,868,correct,NA,Mar 14 2023 14:17:37,Agnieszka,1
6048d,6048d_session1_lista_naming_trial140_hat.wav,1,a,naming,140,hat,973,correct,NA,Mar 14 2023 14:17:48,Agnieszka,1
6048d,6048d_session1_lista_naming_trial141_orange.wav,1,a,naming,141,orange,839,correct,NA,Mar 14 2023 14:18:07,Agnieszka,1
6048d,6048d_session1_lista_naming_trial142_pear.wav,1,a,naming,142,pear,756,correct,NA,Mar 14 2023 14:18:17,Agnieszka,1
6048d,6048d_session1_lista_naming_trial143_shield.wav,1,a,naming,143,shield,1043,correct,NA,Mar 14 2023 14:18:28,Agnieszka,1
6048d,6048d_session1_lista_naming_trial144_comb.wav,1,a,naming,144,comb,699,correct,NA,Mar 14 2023 14:18:46,Agnieszka,1
6048d,6048d_session1_lista_naming_trial145_potato.wav,1,a,naming,145,potato,817,correct,NA,Mar 14 2023 14:18:57,Agnieszka,1
6048d,6048d_session1_lista_naming_trial146_lung.wav,1,a,naming,146,lung,995,correct,NA,Mar 14 2023 14:19:06,Agnieszka,1
6048d,6048d_session1_lista_naming_trial147_flag.wav,1,a,naming,147,flag,848,correct,NA,Mar 14 2023 14:19:20,Agnieszka,1
6048d,6048d_session1_lista_naming_trial148_glove.wav,1,a,naming,148,glove,813,correct,NA,Mar 14 2023 14:19:29,Agnieszka,1
6048d,6048d_session1_lista_naming_trial149_boxer.wav,1,a,naming,149,boxer,877,correct,NA,Mar 14 2023 14:19:43,Agnieszka,1
6048d,6048d_session1_lista_naming_trial150_mountain.wav,1,a,naming,150,mountain,1007,correct,NA,Mar 14 2023 14:19:52,Agnieszka,1
