Participant_ID,File_Name,Session,List,Type_Trial,Trial_Nbr,Target,RT,Response_Trial,Comment,Date_Correction,Assessor_Name,Processed
62ea8,62ea8_session1_lista_naming_trial001_mermaid.wav,1,a,naming,1,mermaid,719,correct,NA,Mar 14 2023 11:46:27,Agnieszka,1
62ea8,62ea8_session1_lista_naming_trial002_dice.wav,1,a,naming,2,dice,-1,wrong_word,NA,Mar 14 2023 11:46:33,Agnieszka,1
62ea8,62ea8_session1_lista_naming_trial003_heel.wav,1,a,naming,3,heel,718,correct,NA,Mar 14 2023 11:46:49,Agnieszka,1
62ea8,62ea8_session1_lista_naming_trial004_crab.wav,1,a,naming,4,crab,775,correct,NA,Mar 14 2023 11:46:59,Agnieszka,1
62ea8,62ea8_session1_lista_naming_trial005_bear.wav,1,a,naming,5,bear,759,correct,NA,Mar 14 2023 11:47:09,Agnieszka,1
62ea8,62ea8_session1_lista_naming_trial006_circle.wav,1,a,naming,6,circle,696,correct,NA,Mar 14 2023 11:47:17,Agnieszka,1
62ea8,62ea8_session1_lista_naming_trial007_pineapple.wav,1,a,naming,7,pineapple,883,correct,NA,Mar 14 2023 11:47:24,Agnieszka,1
62ea8,62ea8_session1_lista_naming_trial008_tattoo.wav,1,a,naming,8,tattoo,-1,wrong_word,NA,Mar 14 2023 11:47:31,Agnieszka,1
62ea8,62ea8_session1_lista_naming_trial009_lighter.wav,1,a,naming,9,lighter,797,correct,NA,Mar 14 2023 11:47:43,Agnieszka,1
62ea8,62ea8_session1_lista_naming_trial010_helicopter.wav,1,a,naming,10,helicopter,772,correct,NA,Mar 14 2023 11:47:54,Agnieszka,1
62ea8,62ea8_session1_lista_naming_trial011_drawer.wav,1,a,naming,11,drawer,858,correct,NA,Mar 14 2023 11:48:02,Agnieszka,1
62ea8,62ea8_session1_lista_naming_trial012_orange.wav,1,a,naming,12,orange,931,correct,NA,Mar 14 2023 11:48:21,Agnieszka,1
62ea8,62ea8_session1_lista_naming_trial013_bike.wav,1,a,naming,13,bike,-1,wrong_word,NA,Mar 14 2023 11:49:07,Agnieszka,1
62ea8,62ea8_session1_lista_naming_trial014_bib.wav,1,a,naming,14,bib,-1,wrong_word,NA,Mar 14 2023 11:49:16,Agnieszka,1
62ea8,62ea8_session1_lista_naming_trial015_rabbit.wav,1,a,naming,15,rabbit,794,correct,NA,Mar 14 2023 11:49:24,Agnieszka,1
62ea8,62ea8_session1_lista_naming_trial016_suitcase.wav,1,a,naming,16,suitcase,915,correct,NA,Mar 14 2023 11:49:33,Agnieszka,1
62ea8,62ea8_session1_lista_naming_trial017_soap.wav,1,a,naming,17,soap,794,correct,NA,Mar 14 2023 11:49:46,Agnieszka,1
62ea8,62ea8_session1_lista_naming_trial018_elbow.wav,1,a,naming,18,elbow,778,correct,NA,Mar 14 2023 11:49:54,Agnieszka,1
62ea8,62ea8_session1_lista_naming_trial019_lighthouse.wav,1,a,naming,19,lighthouse,934,correct,NA,Mar 14 2023 11:50:02,Agnieszka,1
62ea8,62ea8_session1_lista_naming_trial020_onion.wav,1,a,naming,20,onion,-1,no_resp,NA,Mar 14 2023 11:50:09,Agnieszka,1
62ea8,62ea8_session1_lista_naming_trial021_shoe.wav,1,a,naming,21,shoe,1151,correct,NA,Mar 14 2023 11:50:18,Agnieszka,1
62ea8,62ea8_session1_lista_naming_trial022_bench.wav,1,a,naming,22,bench,1208,correct,NA,Mar 14 2023 11:50:27,Agnieszka,1
62ea8,62ea8_session1_lista_naming_trial023_tree.wav,1,a,naming,23,tree,864,correct,NA,Mar 14 2023 11:50:34,Agnieszka,1
62ea8,62ea8_session1_lista_naming_trial024_flower.wav,1,a,naming,24,flower,832,correct,NA,Mar 14 2023 11:50:50,Agnieszka,1
62ea8,62ea8_session1_lista_naming_trial025_mouth.wav,1,a,naming,25,mouth,810,correct,NA,Mar 14 2023 11:51:15,Agnieszka,1
62ea8,62ea8_session1_lista_naming_trial026_tray.wav,1,a,naming,26,tray,826,correct,NA,Mar 14 2023 11:51:26,Agnieszka,1
62ea8,62ea8_session1_lista_naming_trial027_tiger.wav,1,a,naming,27,tiger,938,correct,NA,Mar 14 2023 11:51:34,Agnieszka,1
62ea8,62ea8_session1_lista_naming_trial028_sun.wav,1,a,naming,28,sun,661,correct,NA,Mar 14 2023 11:51:43,Agnieszka,1
62ea8,62ea8_session1_lista_naming_trial029_wave.wav,1,a,naming,29,wave,992,correct,NA,Mar 14 2023 11:51:50,Agnieszka,1
62ea8,62ea8_session1_lista_naming_trial030_scissors.wav,1,a,naming,30,scissors,727,correct,NA,Mar 14 2023 11:52:00,Agnieszka,1
62ea8,62ea8_session1_lista_naming_trial031_rhino.wav,1,a,naming,31,rhino,734,correct,NA,Mar 14 2023 11:52:09,Agnieszka,1
62ea8,62ea8_session1_lista_naming_trial032_fence.wav,1,a,naming,32,fence,839,correct,NA,Mar 14 2023 11:52:16,Agnieszka,1
62ea8,62ea8_session1_lista_naming_trial033_submarine.wav,1,a,naming,33,submarine,963,correct,NA,Mar 14 2023 11:52:25,Agnieszka,1
62ea8,62ea8_session1_lista_naming_trial034_ruler.wav,1,a,naming,34,ruler,855,correct,NA,Mar 14 2023 11:58:24,Agnieszka,1
62ea8,62ea8_session1_lista_naming_trial035_avocado.wav,1,a,naming,35,avocado,989,correct,NA,Mar 14 2023 11:58:34,Agnieszka,1
62ea8,62ea8_session1_lista_naming_trial036_tomato.wav,1,a,naming,36,tomato,810,correct,NA,Mar 14 2023 12:36:44,Agnieszka,1
62ea8,62ea8_session1_lista_naming_trial037_computer.wav,1,a,naming,37,computer,791,correct,NA,Mar 14 2023 12:36:57,Agnieszka,1
62ea8,62ea8_session1_lista_naming_trial038_swan.wav,1,a,naming,38,swan,718,correct,NA,Mar 14 2023 12:37:22,Agnieszka,1
62ea8,62ea8_session1_lista_naming_trial039_hippo.wav,1,a,naming,39,hippo,-1,wrong_word,NA,Mar 14 2023 12:37:28,Agnieszka,1
62ea8,62ea8_session1_lista_naming_trial040_fork.wav,1,a,naming,40,fork,775,correct,NA,Mar 14 2023 12:37:37,Agnieszka,1
62ea8,62ea8_session1_lista_naming_trial041_saw.wav,1,a,naming,41,saw,1033,correct,NA,Mar 14 2023 12:37:47,Agnieszka,1
62ea8,62ea8_session1_lista_naming_trial042_knife.wav,1,a,naming,42,knife,794,correct,NA,Mar 14 2023 12:38:01,Agnieszka,1
62ea8,62ea8_session1_lista_naming_trial043_zip.wav,1,a,naming,43,zip,-1,correct,NA,Mar 14 2023 12:38:02,Agnieszka,1
62ea8,62ea8_session1_lista_naming_trial044_tunnel.wav,1,a,naming,44,tunnel,989,correct,NA,Mar 14 2023 12:38:09,Agnieszka,1
62ea8,62ea8_session1_lista_naming_trial045_nest.wav,1,a,naming,45,nest,1469,correct,NA,Mar 14 2023 12:38:25,Agnieszka,1
62ea8,62ea8_session1_lista_naming_trial046_boxer.wav,1,a,naming,46,boxer,989,correct,NA,Mar 14 2023 12:38:37,Agnieszka,1
62ea8,62ea8_session1_lista_naming_trial047_plumber.wav,1,a,naming,47,plumber,877,correct,NA,Mar 14 2023 12:38:46,Agnieszka,1
62ea8,62ea8_session1_lista_naming_trial048_apple.wav,1,a,naming,48,apple,1154,correct,NA,Mar 14 2023 12:39:03,Agnieszka,1
62ea8,62ea8_session1_lista_naming_trial049_pocket.wav,1,a,naming,49,pocket,1450,correct,NA,Mar 14 2023 12:39:13,Agnieszka,1
62ea8,62ea8_session1_lista_naming_trial050_dress.wav,1,a,naming,50,dress,1078,correct,NA,Mar 14 2023 12:39:22,Agnieszka,1
62ea8,62ea8_session1_lista_naming_trial051_fridge.wav,1,a,naming,51,fridge,912,correct,NA,Mar 14 2023 12:39:31,Agnieszka,1
62ea8,62ea8_session1_lista_naming_trial052_bracelet.wav,1,a,naming,52,bracelet,1221,correct,NA,Mar 14 2023 12:39:43,Agnieszka,1
62ea8,62ea8_session1_lista_naming_trial053_kangaroo.wav,1,a,naming,53,kangaroo,1027,correct,NA,Mar 14 2023 12:39:54,Agnieszka,1
62ea8,62ea8_session1_lista_naming_trial054_glove.wav,1,a,naming,54,glove,982,correct,NA,Mar 14 2023 12:40:02,Agnieszka,1
62ea8,62ea8_session1_lista_naming_trial055_flag.wav,1,a,naming,55,flag,769,correct,NA,Mar 14 2023 12:40:13,Agnieszka,1
62ea8,62ea8_session1_lista_naming_trial056_bullet.wav,1,a,naming,56,bullet,912,correct,NA,Mar 14 2023 12:40:21,Agnieszka,1
62ea8,62ea8_session1_lista_naming_trial057_sweet.wav,1,a,naming,57,sweet,820,correct,NA,Mar 14 2023 12:40:33,Agnieszka,1
62ea8,62ea8_session1_lista_naming_trial058_gym.wav,1,a,naming,58,gym,1103,correct,NA,Mar 14 2023 12:40:43,Agnieszka,1
62ea8,62ea8_session1_lista_naming_trial059_pipe.wav,1,a,naming,59,pipe,1167,correct,NA,Mar 14 2023 12:40:50,Agnieszka,1
62ea8,62ea8_session1_lista_naming_trial060_carrot.wav,1,a,naming,60,carrot,915,correct,NA,Mar 14 2023 12:40:59,Agnieszka,1
62ea8,62ea8_session1_lista_naming_trial061_lung.wav,1,a,naming,61,lung,829,correct,NA,Mar 14 2023 12:41:18,Agnieszka,1
62ea8,62ea8_session1_lista_naming_trial062_castle.wav,1,a,naming,62,castle,864,correct,NA,Mar 14 2023 12:41:26,Agnieszka,1
62ea8,62ea8_session1_lista_naming_trial063_curtain.wav,1,a,naming,63,curtain,1087,correct,NA,Mar 14 2023 12:41:37,Agnieszka,1
62ea8,62ea8_session1_lista_naming_trial064_fox.wav,1,a,naming,64,fox,1004,correct,NA,Mar 14 2023 12:41:48,Agnieszka,1
62ea8,62ea8_session1_lista_naming_trial065_pear.wav,1,a,naming,65,pear,931,correct,NA,Mar 14 2023 12:41:59,Agnieszka,1
62ea8,62ea8_session1_lista_naming_trial066_queen.wav,1,a,naming,66,queen,909,correct,NA,Mar 14 2023 12:42:07,Agnieszka,1
62ea8,62ea8_session1_lista_naming_trial067_doctor.wav,1,a,naming,67,doctor,1170,correct,NA,Mar 14 2023 12:42:16,Agnieszka,1
62ea8,62ea8_session1_lista_naming_trial068_olive.wav,1,a,naming,68,olive,-1,no_resp,NA,Mar 14 2023 12:42:23,Agnieszka,1
62ea8,62ea8_session1_lista_naming_trial069_rocket.wav,1,a,naming,69,rocket,1046,correct,NA,Mar 14 2023 12:42:35,Agnieszka,1
62ea8,62ea8_session1_lista_naming_trial070_arrow.wav,1,a,naming,70,arrow,960,correct,NA,Mar 14 2023 12:42:45,Agnieszka,1
62ea8,62ea8_session1_lista_naming_trial071_jellyfish.wav,1,a,naming,71,jellyfish,887,correct,NA,Mar 14 2023 12:42:56,Agnieszka,1
62ea8,62ea8_session1_lista_naming_trial072_wheelbarrow.wav,1,a,naming,72,wheelbarrow,785,correct,NA,Mar 14 2023 12:43:08,Agnieszka,1
62ea8,62ea8_session1_lista_naming_trial073_star.wav,1,a,naming,73,star,689,correct,NA,Mar 14 2023 12:43:17,Agnieszka,1
62ea8,62ea8_session1_lista_naming_trial074_camel.wav,1,a,naming,74,camel,839,correct,NA,Mar 14 2023 12:43:27,Agnieszka,1
62ea8,62ea8_session1_lista_naming_trial075_thumb.wav,1,a,naming,75,thumb,727,correct,NA,Mar 14 2023 12:43:36,Agnieszka,1
62ea8,62ea8_session1_lista_naming_trial076_candle.wav,1,a,naming,76,candle,801,correct,NA,Mar 14 2023 12:43:44,Agnieszka,1
62ea8,62ea8_session1_lista_naming_trial077_map.wav,1,a,naming,77,map,1505,correct,NA,Mar 14 2023 12:43:55,Agnieszka,1
62ea8,62ea8_session1_lista_naming_trial078_compass.wav,1,a,naming,78,compass,1052,correct,NA,Mar 14 2023 12:44:05,Agnieszka,1
62ea8,62ea8_session1_lista_naming_trial079_key.wav,1,a,naming,79,key,868,correct,NA,Mar 14 2023 12:44:13,Agnieszka,1
62ea8,62ea8_session1_lista_naming_trial080_beak.wav,1,a,naming,80,beak,1011,correct,NA,Mar 14 2023 12:44:22,Agnieszka,1
62ea8,62ea8_session1_lista_naming_trial081_robot.wav,1,a,naming,81,robot,861,correct,NA,Mar 14 2023 12:44:30,Agnieszka,1
62ea8,62ea8_session1_lista_naming_trial082_kiwi.wav,1,a,naming,82,kiwi,1256,correct,NA,Mar 14 2023 12:44:38,Agnieszka,1
62ea8,62ea8_session1_lista_naming_trial083_teacher.wav,1,a,naming,83,teacher,1310,correct,NA,Mar 14 2023 12:44:49,Agnieszka,1
62ea8,62ea8_session1_lista_naming_trial084_koala.wav,1,a,naming,84,koala,1087,correct,NA,Mar 14 2023 12:45:01,Agnieszka,1
62ea8,62ea8_session1_lista_naming_trial085_ear.wav,1,a,naming,85,ear,1090,correct,NA,Mar 14 2023 12:45:10,Agnieszka,1
62ea8,62ea8_session1_lista_naming_trial086_whale.wav,1,a,naming,86,whale,947,correct,NA,Mar 14 2023 12:45:18,Agnieszka,1
62ea8,62ea8_session1_lista_naming_trial087_donkey.wav,1,a,naming,87,donkey,1297,correct,NA,Mar 14 2023 12:45:26,Agnieszka,1
62ea8,62ea8_session1_lista_naming_trial088_tie.wav,1,a,naming,88,tie,938,correct,NA,Mar 14 2023 12:45:37,Agnieszka,1
62ea8,62ea8_session1_lista_naming_trial089_fairy.wav,1,a,naming,89,fairy,848,correct,NA,Mar 14 2023 12:45:48,Agnieszka,1
62ea8,62ea8_session1_lista_naming_trial090_battery.wav,1,a,naming,90,battery,832,correct,NA,Mar 14 2023 12:45:57,Agnieszka,1
62ea8,62ea8_session1_lista_naming_trial091_peg.wav,1,a,naming,91,peg,928,correct,NA,Mar 14 2023 12:46:06,Agnieszka,1
62ea8,62ea8_session1_lista_naming_trial092_bus.wav,1,a,naming,92,bus,928,correct,NA,Mar 14 2023 12:46:14,Agnieszka,1
62ea8,62ea8_session1_lista_naming_trial093_drum.wav,1,a,naming,93,drum,766,correct,NA,Mar 14 2023 12:46:25,Agnieszka,1
62ea8,62ea8_session1_lista_naming_trial094_rose.wav,1,a,naming,94,rose,775,correct,NA,Mar 14 2023 12:46:36,Agnieszka,1
62ea8,62ea8_session1_lista_naming_trial095_sword.wav,1,a,naming,95,sword,880,correct,NA,Mar 14 2023 12:46:44,Agnieszka,1
62ea8,62ea8_session1_lista_naming_trial096_wall.wav,1,a,naming,96,wall,909,correct,NA,Mar 14 2023 12:46:56,Agnieszka,1
62ea8,62ea8_session1_lista_naming_trial097_train.wav,1,a,naming,97,train,896,correct,NA,Mar 14 2023 12:47:05,Agnieszka,1
62ea8,62ea8_session1_lista_naming_trial098_sausage.wav,1,a,naming,98,sausage,711,correct,NA,Mar 14 2023 12:47:14,Agnieszka,1
62ea8,62ea8_session1_lista_naming_trial099_bell.wav,1,a,naming,99,bell,985,correct,NA,Mar 14 2023 12:47:22,Agnieszka,1
62ea8,62ea8_session1_lista_naming_trial100_goat.wav,1,a,naming,100,goat,1377,correct,NA,Mar 14 2023 12:47:30,Agnieszka,1
62ea8,62ea8_session1_lista_naming_trial101_potato.wav,1,a,naming,101,potato,1004,correct,NA,Mar 14 2023 12:47:40,Agnieszka,1
62ea8,62ea8_session1_lista_naming_trial102_skirt.wav,1,a,naming,102,skirt,1126,correct,NA,Mar 14 2023 12:47:47,Agnieszka,1
62ea8,62ea8_session1_lista_naming_trial103_comb.wav,1,a,naming,103,comb,-1,wrong_word,NA,Mar 14 2023 12:47:55,Agnieszka,1
62ea8,62ea8_session1_lista_naming_trial104_coat.wav,1,a,naming,104,coat,1422,correct,NA,Mar 14 2023 12:48:11,Agnieszka,1
62ea8,62ea8_session1_lista_naming_trial105_book.wav,1,a,naming,105,book,880,correct,NA,Mar 14 2023 12:48:22,Agnieszka,1
62ea8,62ea8_session1_lista_naming_trial106_island.wav,1,a,naming,106,island,769,correct,NA,Mar 14 2023 12:48:35,Agnieszka,1
62ea8,62ea8_session1_lista_naming_trial107_zebra.wav,1,a,naming,107,zebra,985,correct,NA,Mar 14 2023 12:48:46,Agnieszka,1
62ea8,62ea8_session1_lista_naming_trial108_kite.wav,1,a,naming,108,kite,1014,correct,NA,Mar 14 2023 12:48:56,Agnieszka,1
62ea8,62ea8_session1_lista_naming_trial109_lawnmower.wav,1,a,naming,109,lawnmower,823,correct,NA,Mar 14 2023 12:49:03,Agnieszka,1
62ea8,62ea8_session1_lista_naming_trial110_cherry.wav,1,a,naming,110,cherry,1167,correct,NA,Mar 14 2023 12:49:12,Agnieszka,1
62ea8,62ea8_session1_lista_naming_trial111_tongue.wav,1,a,naming,111,tongue,1052,correct,NA,Mar 14 2023 12:49:20,Agnieszka,1
62ea8,62ea8_session1_lista_naming_trial112_owl.wav,1,a,naming,112,owl,1090,correct,NA,Mar 14 2023 12:49:30,Agnieszka,1
62ea8,62ea8_session1_lista_naming_trial113_arm.wav,1,a,naming,113,arm,896,correct,NA,Mar 14 2023 12:49:38,Agnieszka,1
62ea8,62ea8_session1_lista_naming_trial114_puppet.wav,1,a,naming,114,puppet,-1,wrong_word,NA,Mar 14 2023 12:49:45,Agnieszka,1
62ea8,62ea8_session1_lista_naming_trial115_judge.wav,1,a,naming,115,judge,1062,correct,NA,Mar 14 2023 12:49:55,Agnieszka,1
62ea8,62ea8_session1_lista_naming_trial116_bone.wav,1,a,naming,116,bone,861,correct,NA,Mar 14 2023 12:50:05,Agnieszka,1
62ea8,62ea8_session1_lista_naming_trial117_dummy.wav,1,a,naming,117,dummy,1584,correct,NA,Mar 14 2023 12:50:13,Agnieszka,1
62ea8,62ea8_session1_lista_naming_trial118_wing.wav,1,a,naming,118,wing,1017,correct,NA,Mar 14 2023 12:50:21,Agnieszka,1
62ea8,62ea8_session1_lista_naming_trial119_tractor.wav,1,a,naming,119,tractor,727,correct,NA,Mar 14 2023 12:50:31,Agnieszka,1
62ea8,62ea8_session1_lista_naming_trial120_limo.wav,1,a,naming,120,limo,737,correct,NA,Mar 14 2023 12:50:50,Agnieszka,1
62ea8,62ea8_session1_lista_naming_trial121_basket.wav,1,a,naming,121,basket,727,correct,NA,Mar 14 2023 12:51:05,Agnieszka,1
62ea8,62ea8_session1_lista_naming_trial122_fireplace.wav,1,a,naming,122,fireplace,756,correct,NA,Mar 14 2023 12:51:16,Agnieszka,1
62ea8,62ea8_session1_lista_naming_trial123_windmill.wav,1,a,naming,123,windmill,871,correct,NA,Mar 14 2023 12:51:26,Agnieszka,1
62ea8,62ea8_session1_lista_naming_trial124_tap.wav,1,a,naming,124,tap,858,correct,NA,Mar 14 2023 12:51:34,Agnieszka,1
62ea8,62ea8_session1_lista_naming_trial125_tambourine.wav,1,a,naming,125,tambourine,1081,correct,NA,Mar 14 2023 12:51:42,Agnieszka,1
62ea8,62ea8_session1_lista_naming_trial126_bull.wav,1,a,naming,126,bull,982,correct,NA,Mar 14 2023 12:51:51,Agnieszka,1
62ea8,62ea8_session1_lista_naming_trial127_lamp.wav,1,a,naming,127,lamp,731,correct,NA,Mar 14 2023 12:51:59,Agnieszka,1
62ea8,62ea8_session1_lista_naming_trial128_doughnut.wav,1,a,naming,128,doughnut,775,correct,NA,Mar 14 2023 12:52:08,Agnieszka,1
62ea8,62ea8_session1_lista_naming_trial129_kitchen.wav,1,a,naming,129,kitchen,938,correct,NA,Mar 14 2023 12:52:16,Agnieszka,1
62ea8,62ea8_session1_lista_naming_trial130_butterfly.wav,1,a,naming,130,butterfly,797,correct,NA,Mar 14 2023 12:52:23,Agnieszka,1
62ea8,62ea8_session1_lista_naming_trial131_shower.wav,1,a,naming,131,shower,788,correct,NA,Mar 14 2023 12:52:32,Agnieszka,1
62ea8,62ea8_session1_lista_naming_trial132_shield.wav,1,a,naming,132,shield,734,correct,NA,Mar 14 2023 12:52:40,Agnieszka,1
62ea8,62ea8_session1_lista_naming_trial133_suit.wav,1,a,naming,133,suit,874,correct,NA,Mar 14 2023 12:52:47,Agnieszka,1
62ea8,62ea8_session1_lista_naming_trial134_net.wav,1,a,naming,134,net,807,correct,NA,Mar 14 2023 12:52:55,Agnieszka,1
62ea8,62ea8_session1_lista_naming_trial135_snake.wav,1,a,naming,135,snake,782,correct,NA,Mar 14 2023 12:53:03,Agnieszka,1
62ea8,62ea8_session1_lista_naming_trial136_clown.wav,1,a,naming,136,clown,995,correct,NA,Mar 14 2023 12:53:17,Agnieszka,1
62ea8,62ea8_session1_lista_naming_trial137_medal.wav,1,a,naming,137,medal,794,correct,NA,Mar 14 2023 12:53:27,Agnieszka,1
62ea8,62ea8_session1_lista_naming_trial138_bottle.wav,1,a,naming,138,bottle,918,correct,NA,Mar 14 2023 12:53:37,Agnieszka,1
62ea8,62ea8_session1_lista_naming_trial139_ghost.wav,1,a,naming,139,ghost,922,correct,NA,Mar 14 2023 12:53:46,Agnieszka,1
62ea8,62ea8_session1_lista_naming_trial140_caterpillar.wav,1,a,naming,140,caterpillar,979,correct,NA,Mar 14 2023 12:53:55,Agnieszka,1
62ea8,62ea8_session1_lista_naming_trial141_squirrel.wav,1,a,naming,141,squirrel,861,correct,NA,Mar 14 2023 12:54:04,Agnieszka,1
62ea8,62ea8_session1_lista_naming_trial142_triangle.wav,1,a,naming,142,triangle,906,correct,NA,Mar 14 2023 12:54:14,Agnieszka,1
62ea8,62ea8_session1_lista_naming_trial143_butter.wav,1,a,naming,143,butter,-1,wrong_word,NA,Mar 14 2023 12:54:21,Agnieszka,1
62ea8,62ea8_session1_lista_naming_trial144_mountain.wav,1,a,naming,144,mountain,931,correct,NA,Mar 14 2023 12:54:29,Agnieszka,1
62ea8,62ea8_session1_lista_naming_trial145_pencil.wav,1,a,naming,145,pencil,896,correct,NA,Mar 14 2023 12:54:37,Agnieszka,1
62ea8,62ea8_session1_lista_naming_trial146_cork.wav,1,a,naming,146,cork,1055,correct,NA,Mar 14 2023 12:54:47,Agnieszka,1
62ea8,62ea8_session1_lista_naming_trial147_magnet.wav,1,a,naming,147,magnet,887,correct,NA,Mar 14 2023 12:54:55,Agnieszka,1
62ea8,62ea8_session1_lista_naming_trial148_flipper.wav,1,a,naming,148,flipper,1087,correct,NA,Mar 14 2023 12:55:08,Agnieszka,1
62ea8,62ea8_session1_lista_naming_trial149_pepper.wav,1,a,naming,149,pepper,-1,wrong_word,NA,Mar 14 2023 12:55:15,Agnieszka,1
62ea8,62ea8_session1_lista_naming_trial150_hat.wav,1,a,naming,150,hat,1020,correct,NA,Mar 14 2023 12:55:23,Agnieszka,1
