Participant_ID,File_Name,Session,List,Type_Trial,Trial_Nbr,Target,RT,Response_Trial,Comment,Date_Correction,Assessor_Name,Processed
5f00f,5f00f_session1_lista_naming_trial001_comb.wav,1,a,naming,1,comb,1626,uncertain,talking in the beginning ,Mar 28 2023 15:27:16,Agnieszka,1
5f00f,5f00f_session1_lista_naming_trial002_flower.wav,1,a,naming,2,flower,915,correct,NA,Mar 28 2023 15:27:30,Agnieszka,1
5f00f,5f00f_session1_lista_naming_trial003_bull.wav,1,a,naming,3,bull,995,correct,NA,Mar 28 2023 15:27:46,Agnieszka,1
5f00f,5f00f_session1_lista_naming_trial004_zip.wav,1,a,naming,4,zip,-1,wrong_word,NA,Mar 28 2023 15:27:59,Agnieszka,1
5f00f,5f00f_session1_lista_naming_trial005_dress.wav,1,a,naming,5,dress,1036,correct,NA,Mar 28 2023 15:28:26,Agnieszka,1
5f00f,5f00f_session1_lista_naming_trial006_soap.wav,1,a,naming,6,soap,-1,wrong_word,NA,Mar 28 2023 15:28:40,Agnieszka,1
5f00f,5f00f_session1_lista_naming_trial007_tunnel.wav,1,a,naming,7,tunnel,1536,correct,NA,Mar 28 2023 15:28:49,Agnieszka,1
5f00f,5f00f_session1_lista_naming_trial008_boxer.wav,1,a,naming,8,boxer,1282,correct,NA,Mar 28 2023 15:29:08,Agnieszka,1
5f00f,5f00f_session1_lista_naming_trial009_fox.wav,1,a,naming,9,fox,954,correct,NA,Mar 28 2023 15:29:19,Agnieszka,1
5f00f,5f00f_session1_lista_naming_trial010_coat.wav,1,a,naming,10,coat,883,correct,NA,Mar 28 2023 15:29:26,Agnieszka,1
5f00f,5f00f_session1_lista_naming_trial011_puppet.wav,1,a,naming,11,puppet,1231,correct,NA,Mar 28 2023 15:29:34,Agnieszka,1
5f00f,5f00f_session1_lista_naming_trial012_bottle.wav,1,a,naming,12,bottle,759,correct,NA,Mar 28 2023 15:29:42,Agnieszka,1
5f00f,5f00f_session1_lista_naming_trial013_ghost.wav,1,a,naming,13,ghost,740,correct,NA,Mar 28 2023 15:29:51,Agnieszka,1
5f00f,5f00f_session1_lista_naming_trial014_onion.wav,1,a,naming,14,onion,1065,correct,NA,Mar 28 2023 15:30:00,Agnieszka,1
5f00f,5f00f_session1_lista_naming_trial015_medal.wav,1,a,naming,15,medal,877,correct,NA,Mar 28 2023 15:30:16,Agnieszka,1
5f00f,5f00f_session1_lista_naming_trial016_doctor.wav,1,a,naming,16,doctor,1145,correct,NA,Mar 28 2023 15:30:26,Agnieszka,1
5f00f,5f00f_session1_lista_naming_trial017_arm.wav,1,a,naming,17,arm,966,correct,NA,Mar 28 2023 15:30:40,Agnieszka,1
5f00f,5f00f_session1_lista_naming_trial018_hippo.wav,1,a,naming,18,hippo,1629,correct,NA,Mar 28 2023 15:31:06,Agnieszka,1
5f00f,5f00f_session1_lista_naming_trial019_knife.wav,1,a,naming,19,knife,1030,correct,NA,Mar 28 2023 15:31:14,Agnieszka,1
5f00f,5f00f_session1_lista_naming_trial020_candle.wav,1,a,naming,20,candle,896,correct,NA,Mar 28 2023 15:31:22,Agnieszka,1
5f00f,5f00f_session1_lista_naming_trial021_compass.wav,1,a,naming,21,compass,1361,correct,NA,Mar 28 2023 15:31:31,Agnieszka,1
5f00f,5f00f_session1_lista_naming_trial022_caterpillar.wav,1,a,naming,22,caterpillar,1234,correct,NA,Mar 28 2023 15:31:38,Agnieszka,1
5f00f,5f00f_session1_lista_naming_trial023_bullet.wav,1,a,naming,23,bullet,1552,correct,NA,Mar 28 2023 15:31:45,Agnieszka,1
5f00f,5f00f_session1_lista_naming_trial024_pear.wav,1,a,naming,24,pear,998,correct,NA,Mar 28 2023 15:31:52,Agnieszka,1
5f00f,5f00f_session1_lista_naming_trial025_donkey.wav,1,a,naming,25,donkey,1419,correct,NA,Mar 28 2023 15:32:01,Agnieszka,1
5f00f,5f00f_session1_lista_naming_trial026_pineapple.wav,1,a,naming,26,pineapple,985,correct,NA,Mar 28 2023 15:32:12,Agnieszka,1
5f00f,5f00f_session1_lista_naming_trial027_apple.wav,1,a,naming,27,apple,941,correct,NA,Mar 28 2023 15:32:20,Agnieszka,1
5f00f,5f00f_session1_lista_naming_trial028_kitchen.wav,1,a,naming,28,kitchen,1090,correct,NA,Mar 28 2023 15:32:34,Agnieszka,1
5f00f,5f00f_session1_lista_naming_trial029_lung.wav,1,a,naming,29,lung,1157,correct,NA,Mar 28 2023 15:32:42,Agnieszka,1
5f00f,5f00f_session1_lista_naming_trial030_sun.wav,1,a,naming,30,sun,1113,correct,NA,Mar 28 2023 15:32:55,Agnieszka,1
5f00f,5f00f_session1_lista_naming_trial031_heel.wav,1,a,naming,31,heel,1008,correct,NA,Mar 28 2023 15:33:02,Agnieszka,1
5f00f,5f00f_session1_lista_naming_trial032_orange.wav,1,a,naming,32,orange,1129,correct,NA,Mar 28 2023 15:33:09,Agnieszka,1
5f00f,5f00f_session1_lista_naming_trial033_island.wav,1,a,naming,33,island,1581,correct,NA,Mar 28 2023 15:33:17,Agnieszka,1
5f00f,5f00f_session1_lista_naming_trial034_crab.wav,1,a,naming,34,crab,1285,correct,NA,Mar 28 2023 15:33:25,Agnieszka,1
5f00f,5f00f_session1_lista_naming_trial035_wave.wav,1,a,naming,35,wave,1409,correct,NA,Mar 28 2023 15:33:31,Agnieszka,1
5f00f,5f00f_session1_lista_naming_trial036_zebra.wav,1,a,naming,36,zebra,1307,correct,NA,Mar 28 2023 15:33:39,Agnieszka,1
5f00f,5f00f_session1_lista_naming_trial037_tambourine.wav,1,a,naming,37,tambourine,-1,wrong_word,NA,Mar 28 2023 15:33:47,Agnieszka,1
5f00f,5f00f_session1_lista_naming_trial038_bike.wav,1,a,naming,38,bike,1192,correct,NA,Mar 28 2023 15:33:54,Agnieszka,1
5f00f,5f00f_session1_lista_naming_trial039_tray.wav,1,a,naming,39,tray,1489,correct,NA,Mar 28 2023 15:34:06,Agnieszka,1
5f00f,5f00f_session1_lista_naming_trial040_net.wav,1,a,naming,40,net,1106,correct,NA,Mar 28 2023 15:34:15,Agnieszka,1
5f00f,5f00f_session1_lista_naming_trial041_rocket.wav,1,a,naming,41,rocket,941,correct,NA,Mar 28 2023 15:34:25,Agnieszka,1
5f00f,5f00f_session1_lista_naming_trial042_map.wav,1,a,naming,42,map,1055,correct,NA,Mar 28 2023 15:34:35,Agnieszka,1
5f00f,5f00f_session1_lista_naming_trial043_peg.wav,1,a,naming,43,peg,1677,correct,NA,Mar 28 2023 15:34:42,Agnieszka,1
5f00f,5f00f_session1_lista_naming_trial044_squirrel.wav,1,a,naming,44,squirrel,922,correct,NA,Mar 28 2023 15:34:50,Agnieszka,1
5f00f,5f00f_session1_lista_naming_trial045_hat.wav,1,a,naming,45,hat,778,correct,NA,Mar 28 2023 15:34:57,Agnieszka,1
5f00f,5f00f_session1_lista_naming_trial046_windmill.wav,1,a,naming,46,windmill,1084,correct,NA,Mar 28 2023 15:35:05,Agnieszka,1
5f00f,5f00f_session1_lista_naming_trial047_wall.wav,1,a,naming,47,wall,1218,correct,NA,Mar 28 2023 15:35:14,Agnieszka,1
5f00f,5f00f_session1_lista_naming_trial048_basket.wav,1,a,naming,48,basket,922,correct,NA,Mar 28 2023 15:35:21,Agnieszka,1
5f00f,5f00f_session1_lista_naming_trial049_fence.wav,1,a,naming,49,fence,-1,wrong_word,NA,Mar 28 2023 15:35:29,Agnieszka,1
5f00f,5f00f_session1_lista_naming_trial050_rhino.wav,1,a,naming,50,rhino,931,correct,NA,Mar 28 2023 15:35:38,Agnieszka,1
5f00f,5f00f_session1_lista_naming_trial051_castle.wav,1,a,naming,51,castle,820,correct,NA,Mar 28 2023 15:35:46,Agnieszka,1
5f00f,5f00f_session1_lista_naming_trial052_tree.wav,1,a,naming,52,tree,769,correct,NA,Mar 28 2023 15:35:54,Agnieszka,1
5f00f,5f00f_session1_lista_naming_trial053_nest.wav,1,a,naming,53,nest,1212,correct,NA,Mar 28 2023 15:36:08,Agnieszka,1
5f00f,5f00f_session1_lista_naming_trial054_rose.wav,1,a,naming,54,rose,1049,correct,NA,Mar 28 2023 15:36:16,Agnieszka,1
5f00f,5f00f_session1_lista_naming_trial055_arrow.wav,1,a,naming,55,arrow,954,correct,NA,Mar 28 2023 15:36:24,Agnieszka,1
5f00f,5f00f_session1_lista_naming_trial056_book.wav,1,a,naming,56,book,1305,correct,NA,Mar 28 2023 15:36:40,Agnieszka,1
5f00f,5f00f_session1_lista_naming_trial057_glove.wav,1,a,naming,57,glove,944,correct,NA,Mar 28 2023 15:36:49,Agnieszka,1
5f00f,5f00f_session1_lista_naming_trial058_tap.wav,1,a,naming,58,tap,912,correct,NA,Mar 28 2023 15:36:56,Agnieszka,1
5f00f,5f00f_session1_lista_naming_trial059_bench.wav,1,a,naming,59,bench,957,correct,NA,Mar 28 2023 15:37:05,Agnieszka,1
5f00f,5f00f_session1_lista_naming_trial060_potato.wav,1,a,naming,60,potato,858,correct,NA,Mar 28 2023 15:37:14,Agnieszka,1
5f00f,5f00f_session1_lista_naming_trial061_snake.wav,1,a,naming,61,snake,966,correct,NA,Mar 28 2023 15:37:21,Agnieszka,1
5f00f,5f00f_session1_lista_naming_trial062_helicopter.wav,1,a,naming,62,helicopter,906,correct,NA,Mar 28 2023 15:37:30,Agnieszka,1
5f00f,5f00f_session1_lista_naming_trial063_wing.wav,1,a,naming,63,wing,1122,correct,NA,Mar 28 2023 15:37:41,Agnieszka,1
5f00f,5f00f_session1_lista_naming_trial064_clown.wav,1,a,naming,64,clown,1075,correct,NA,Mar 28 2023 15:37:49,Agnieszka,1
5f00f,5f00f_session1_lista_naming_trial065_train.wav,1,a,naming,65,train,842,correct,NA,Mar 28 2023 15:38:01,Agnieszka,1
5f00f,5f00f_session1_lista_naming_trial066_mountain.wav,1,a,naming,66,mountain,985,correct,NA,Mar 28 2023 15:38:12,Agnieszka,1
5f00f,5f00f_session1_lista_naming_trial067_suitcase.wav,1,a,naming,67,suitcase,1530,correct,NA,Mar 28 2023 15:38:19,Agnieszka,1
5f00f,5f00f_session1_lista_naming_trial068_doughnut.wav,1,a,naming,68,doughnut,1126,correct,NA,Mar 28 2023 15:38:34,Agnieszka,1
5f00f,5f00f_session1_lista_naming_trial069_wheelbarrow.wav,1,a,naming,69,wheelbarrow,906,correct,NA,Mar 28 2023 15:39:03,Agnieszka,1
5f00f,5f00f_session1_lista_naming_trial070_sausage.wav,1,a,naming,70,sausage,1084,correct,NA,Mar 28 2023 15:39:11,Agnieszka,1
5f00f,5f00f_session1_lista_naming_trial071_bus.wav,1,a,naming,71,bus,1145,correct,NA,Mar 28 2023 15:39:19,Agnieszka,1
5f00f,5f00f_session1_lista_naming_trial072_limo.wav,1,a,naming,72,limo,1371,correct,NA,Mar 28 2023 15:39:30,Agnieszka,1
5f00f,5f00f_session1_lista_naming_trial073_whale.wav,1,a,naming,73,whale,1425,correct,NA,Mar 28 2023 15:39:41,Agnieszka,1
5f00f,5f00f_session1_lista_naming_trial074_circle.wav,1,a,naming,74,circle,1106,correct,NA,Mar 28 2023 15:39:54,Agnieszka,1
5f00f,5f00f_session1_lista_naming_trial075_scissors.wav,1,a,naming,75,scissors,982,correct,NA,Mar 28 2023 15:40:09,Agnieszka,1
5f00f,5f00f_session1_lista_naming_trial076_owl.wav,1,a,naming,76,owl,1116,correct,NA,Mar 28 2023 15:40:23,Agnieszka,1
5f00f,5f00f_session1_lista_naming_trial077_fairy.wav,1,a,naming,77,fairy,-1,wrong_word,NA,Mar 28 2023 15:40:31,Agnieszka,1
5f00f,5f00f_session1_lista_naming_trial078_shower.wav,1,a,naming,78,shower,1202,correct,NA,Mar 28 2023 15:41:07,Agnieszka,1
5f00f,5f00f_session1_lista_naming_trial079_sword.wav,1,a,naming,79,sword,1262,correct,NA,Mar 28 2023 15:41:23,Agnieszka,1
5f00f,5f00f_session1_lista_naming_trial080_lighter.wav,1,a,naming,80,lighter,1151,correct,NA,Mar 28 2023 15:41:31,Agnieszka,1
5f00f,5f00f_session1_lista_naming_trial081_tomato.wav,1,a,naming,81,tomato,934,correct,NA,Mar 28 2023 15:41:42,Agnieszka,1
5f00f,5f00f_session1_lista_naming_trial082_judge.wav,1,a,naming,82,judge,1071,correct,NA,Mar 28 2023 15:41:56,Agnieszka,1
5f00f,5f00f_session1_lista_naming_trial083_carrot.wav,1,a,naming,83,carrot,896,correct,NA,Mar 28 2023 15:42:04,Agnieszka,1
5f00f,5f00f_session1_lista_naming_trial084_thumb.wav,1,a,naming,84,thumb,1157,correct,NA,Mar 28 2023 15:42:13,Agnieszka,1
5f00f,5f00f_session1_lista_naming_trial085_camel.wav,1,a,naming,85,camel,1148,correct,NA,Mar 28 2023 15:42:20,Agnieszka,1
5f00f,5f00f_session1_lista_naming_trial086_cherry.wav,1,a,naming,86,cherry,1001,correct,NA,Mar 28 2023 15:42:29,Agnieszka,1
5f00f,5f00f_session1_lista_naming_trial087_shoe.wav,1,a,naming,87,shoe,922,correct,NA,Mar 28 2023 15:42:38,Agnieszka,1
5f00f,5f00f_session1_lista_naming_trial088_flipper.wav,1,a,naming,88,flipper,1524,correct,NA,Mar 28 2023 15:43:22,Agnieszka,1
5f00f,5f00f_session1_lista_naming_trial089_kangaroo.wav,1,a,naming,89,kangaroo,-1,no_resp,NA,Mar 28 2023 15:43:32,Agnieszka,1
5f00f,5f00f_session1_lista_naming_trial090_computer.wav,1,a,naming,90,computer,1176,correct,NA,Mar 28 2023 15:43:40,Agnieszka,1
5f00f,5f00f_session1_lista_naming_trial091_plumber.wav,1,a,naming,91,plumber,1724,correct,NA,Mar 28 2023 15:43:57,Agnieszka,1
5f00f,5f00f_session1_lista_naming_trial092_swan.wav,1,a,naming,92,swan,1215,correct,NA,Mar 28 2023 15:44:06,Agnieszka,1
5f00f,5f00f_session1_lista_naming_trial093_robot.wav,1,a,naming,93,robot,1307,correct,NA,Mar 28 2023 15:44:14,Agnieszka,1
5f00f,5f00f_session1_lista_naming_trial094_pencil.wav,1,a,naming,94,pencil,1094,correct,NA,Mar 28 2023 15:44:24,Agnieszka,1
5f00f,5f00f_session1_lista_naming_trial095_ruler.wav,1,a,naming,95,ruler,1059,correct,NA,Mar 28 2023 15:44:31,Agnieszka,1
5f00f,5f00f_session1_lista_naming_trial096_butterfly.wav,1,a,naming,96,butterfly,928,correct,NA,Mar 28 2023 15:44:39,Agnieszka,1
5f00f,5f00f_session1_lista_naming_trial097_dice.wav,1,a,naming,97,dice,-1,disfluency,NA,Mar 28 2023 15:44:46,Agnieszka,1
5f00f,5f00f_session1_lista_naming_trial098_bone.wav,1,a,naming,98,bone,1313,correct,NA,Mar 28 2023 15:44:52,Agnieszka,1
5f00f,5f00f_session1_lista_naming_trial099_kiwi.wav,1,a,naming,99,kiwi,1036,correct,NA,Mar 28 2023 15:45:07,Agnieszka,1
5f00f,5f00f_session1_lista_naming_trial100_mouth.wav,1,a,naming,100,mouth,1129,correct,NA,Mar 28 2023 15:45:17,Agnieszka,1
5f00f,5f00f_session1_lista_naming_trial101_elbow.wav,1,a,naming,101,elbow,1224,correct,NA,Mar 28 2023 15:45:29,Agnieszka,1
5f00f,5f00f_session1_lista_naming_trial102_battery.wav,1,a,naming,102,battery,1161,correct,NA,Mar 28 2023 15:45:38,Agnieszka,1
5f00f,5f00f_session1_lista_naming_trial103_bib.wav,1,a,naming,103,bib,1893,correct,NA,Mar 28 2023 15:45:44,Agnieszka,1
5f00f,5f00f_session1_lista_naming_trial104_tractor.wav,1,a,naming,104,tractor,1040,correct,NA,Mar 28 2023 15:45:51,Agnieszka,1
5f00f,5f00f_session1_lista_naming_trial105_suit.wav,1,a,naming,105,suit,1001,correct,NA,Mar 28 2023 15:46:17,Agnieszka,1
5f00f,5f00f_session1_lista_naming_trial106_cork.wav,1,a,naming,106,cork,-1,wrong_word,NA,Mar 28 2023 15:46:29,Agnieszka,1
5f00f,5f00f_session1_lista_naming_trial107_submarine.wav,1,a,naming,107,submarine,1966,correct,NA,Mar 28 2023 15:46:46,Agnieszka,1
5f00f,5f00f_session1_lista_naming_trial108_fridge.wav,1,a,naming,108,fridge,1250,correct,NA,Mar 28 2023 15:46:58,Agnieszka,1
5f00f,5f00f_session1_lista_naming_trial109_flag.wav,1,a,naming,109,flag,1110,correct,NA,Mar 28 2023 15:47:14,Agnieszka,1
5f00f,5f00f_session1_lista_naming_trial110_drum.wav,1,a,naming,110,drum,-1,wrong_word,NA,Mar 28 2023 15:47:24,Agnieszka,1
5f00f,5f00f_session1_lista_naming_trial111_fork.wav,1,a,naming,111,fork,1138,correct,NA,Mar 28 2023 15:47:37,Agnieszka,1
5f00f,5f00f_session1_lista_naming_trial112_tiger.wav,1,a,naming,112,tiger,1075,correct,NA,Mar 28 2023 15:47:44,Agnieszka,1
5f00f,5f00f_session1_lista_naming_trial113_tongue.wav,1,a,naming,113,tongue,1256,correct,NA,Mar 28 2023 15:47:52,Agnieszka,1
5f00f,5f00f_session1_lista_naming_trial114_jellyfish.wav,1,a,naming,114,jellyfish,1377,correct,NA,Mar 28 2023 15:47:58,Agnieszka,1
5f00f,5f00f_session1_lista_naming_trial115_lighthouse.wav,1,a,naming,115,lighthouse,-1,uncertain,noisy background,Mar 28 2023 15:48:17,Agnieszka,1
5f00f,5f00f_session1_lista_naming_trial116_tie.wav,1,a,naming,116,tie,1272,correct,NA,Mar 28 2023 15:48:27,Agnieszka,1
5f00f,5f00f_session1_lista_naming_trial117_teacher.wav,1,a,naming,117,teacher,-1,wrong_word,NA,Mar 28 2023 15:48:34,Agnieszka,1
5f00f,5f00f_session1_lista_naming_trial118_fireplace.wav,1,a,naming,118,fireplace,-1,wrong_word,NA,Mar 28 2023 15:48:40,Agnieszka,1
5f00f,5f00f_session1_lista_naming_trial119_tattoo.wav,1,a,naming,119,tattoo,1046,correct,NA,Mar 28 2023 15:48:50,Agnieszka,1
5f00f,5f00f_session1_lista_naming_trial120_bear.wav,1,a,naming,120,bear,1094,correct,NA,Mar 28 2023 15:48:58,Agnieszka,1
5f00f,5f00f_session1_lista_naming_trial121_lamp.wav,1,a,naming,121,lamp,1036,correct,NA,Mar 28 2023 15:49:05,Agnieszka,1
5f00f,5f00f_session1_lista_naming_trial122_kite.wav,1,a,naming,122,kite,-1,wrong_word,NA,Mar 28 2023 15:49:11,Agnieszka,1
5f00f,5f00f_session1_lista_naming_trial123_mermaid.wav,1,a,naming,123,mermaid,1485,correct,NA,Mar 28 2023 15:49:27,Agnieszka,1
5f00f,5f00f_session1_lista_naming_trial124_gym.wav,1,a,naming,124,gym,1297,correct,NA,Mar 28 2023 15:49:34,Agnieszka,1
5f00f,5f00f_session1_lista_naming_trial125_drawer.wav,1,a,naming,125,drawer,1129,correct,NA,Mar 28 2023 15:49:42,Agnieszka,1
5f00f,5f00f_session1_lista_naming_trial126_curtain.wav,1,a,naming,126,curtain,1750,correct,NA,Mar 28 2023 15:49:48,Agnieszka,1
5f00f,5f00f_session1_lista_naming_trial127_key.wav,1,a,naming,127,key,906,correct,NA,Mar 28 2023 15:49:56,Agnieszka,1
5f00f,5f00f_session1_lista_naming_trial128_pepper.wav,1,a,naming,128,pepper,858,correct,NA,Mar 28 2023 15:50:03,Agnieszka,1
5f00f,5f00f_session1_lista_naming_trial129_pipe.wav,1,a,naming,129,pipe,966,correct,NA,Mar 28 2023 15:50:26,Agnieszka,1
5f00f,5f00f_session1_lista_naming_trial130_saw.wav,1,a,naming,130,saw,960,correct,NA,Mar 28 2023 15:50:39,Agnieszka,1
5f00f,5f00f_session1_lista_naming_trial131_butter.wav,1,a,naming,131,butter,1145,correct,NA,Mar 28 2023 15:50:47,Agnieszka,1
5f00f,5f00f_session1_lista_naming_trial132_goat.wav,1,a,naming,132,goat,1199,correct,NA,Mar 28 2023 15:50:54,Agnieszka,1
5f00f,5f00f_session1_lista_naming_trial133_dummy.wav,1,a,naming,133,dummy,1110,correct,NA,Mar 28 2023 15:51:06,Agnieszka,1
5f00f,5f00f_session1_lista_naming_trial134_koala.wav,1,a,naming,134,koala,1294,correct,NA,Mar 28 2023 15:51:14,Agnieszka,1
5f00f,5f00f_session1_lista_naming_trial135_olive.wav,1,a,naming,135,olive,1390,correct,NA,Mar 28 2023 15:51:24,Agnieszka,1
5f00f,5f00f_session1_lista_naming_trial136_lawnmower.wav,1,a,naming,136,lawnmower,-1,wrong_word,NA,Mar 28 2023 15:51:33,Agnieszka,1
5f00f,5f00f_session1_lista_naming_trial137_skirt.wav,1,a,naming,137,skirt,1004,correct,NA,Mar 28 2023 15:51:39,Agnieszka,1
5f00f,5f00f_session1_lista_naming_trial138_queen.wav,1,a,naming,138,queen,788,correct,NA,Mar 28 2023 15:51:47,Agnieszka,1
5f00f,5f00f_session1_lista_naming_trial139_avocado.wav,1,a,naming,139,avocado,1027,correct,NA,Mar 28 2023 15:51:59,Agnieszka,1
5f00f,5f00f_session1_lista_naming_trial140_shield.wav,1,a,naming,140,shield,1138,correct,NA,Mar 28 2023 15:52:06,Agnieszka,1
5f00f,5f00f_session1_lista_naming_trial141_triangle.wav,1,a,naming,141,triangle,1431,correct,NA,Mar 28 2023 15:52:14,Agnieszka,1
5f00f,5f00f_session1_lista_naming_trial142_bracelet.wav,1,a,naming,142,bracelet,1740,correct,NA,Mar 28 2023 15:52:23,Agnieszka,1
5f00f,5f00f_session1_lista_naming_trial143_pocket.wav,1,a,naming,143,pocket,1555,correct,NA,Mar 28 2023 15:52:36,Agnieszka,1
5f00f,5f00f_session1_lista_naming_trial144_bell.wav,1,a,naming,144,bell,1161,correct,NA,Mar 28 2023 15:52:50,Agnieszka,1
5f00f,5f00f_session1_lista_naming_trial145_star.wav,1,a,naming,145,star,1036,correct,NA,Mar 28 2023 15:52:58,Agnieszka,1
5f00f,5f00f_session1_lista_naming_trial146_ear.wav,1,a,naming,146,ear,963,correct,NA,Mar 28 2023 15:53:07,Agnieszka,1
5f00f,5f00f_session1_lista_naming_trial147_rabbit.wav,1,a,naming,147,rabbit,1084,correct,NA,Mar 28 2023 15:53:16,Agnieszka,1
5f00f,5f00f_session1_lista_naming_trial148_magnet.wav,1,a,naming,148,magnet,1469,correct,NA,Mar 28 2023 15:53:28,Agnieszka,1
5f00f,5f00f_session1_lista_naming_trial149_sweet.wav,1,a,naming,149,sweet,807,correct,NA,Mar 28 2023 15:53:35,Agnieszka,1
5f00f,5f00f_session1_lista_naming_trial150_beak.wav,1,a,naming,150,beak,1224,correct,NA,Mar 28 2023 15:53:43,Agnieszka,1
