Participant_ID,File_Name,Session,List,Type_Trial,Trial_Nbr,Target,RT,Response_Trial,Comment,Date_Correction,Assessor_Name,Processed
62a1f,62a1f_session1_lista_speeded_trial001_dice.wav,1,a,peeded,1,dice,685,correct,NA,Apr 25 2023 16:55:52,Friederike,1
62a1f,62a1f_session1_lista_speeded_trial002_rhino.wav,1,a,peeded,2,rhino,689,correct,NA,Apr 25 2023 16:56:19,Friederike,1
62a1f,62a1f_session1_lista_speeded_trial003_ghost.wav,1,a,peeded,3,ghost,679,correct,NA,Apr 25 2023 16:57:24,Friederike,1
62a1f,62a1f_session1_lista_speeded_trial004_pineapple.wav,1,a,peeded,4,pineapple,578,correct,NA,Apr 25 2023 16:57:48,Friederike,1
62a1f,62a1f_session1_lista_speeded_trial005_book.wav,1,a,peeded,5,book,638,correct,NA,Apr 25 2023 16:58:13,Friederike,1
62a1f,62a1f_session1_lista_speeded_trial006_owl.wav,1,a,peeded,6,owl,726,correct,NA,Apr 25 2023 16:58:41,Friederike,1
62a1f,62a1f_session1_lista_speeded_trial007_heel.wav,1,a,peeded,7,heel,-1,wrong_word,NA,Apr 25 2023 16:58:49,Friederike,1
62a1f,62a1f_session1_lista_speeded_trial008_ear.wav,1,a,peeded,8,ear,608,correct,NA,Apr 25 2023 16:59:15,Friederike,1
62a1f,62a1f_session1_lista_speeded_trial009_swan.wav,1,a,peeded,9,swan,652,correct,NA,Apr 25 2023 16:59:43,Friederike,1
62a1f,62a1f_session1_lista_speeded_trial010_kiwi.wav,1,a,peeded,10,kiwi,807,correct,NA,Apr 25 2023 17:00:02,Friederike,1
62a1f,62a1f_session1_lista_speeded_trial011_tray.wav,1,a,peeded,11,tray,-1,wrong_word,NA,Apr 25 2023 17:00:10,Friederike,1
62a1f,62a1f_session1_lista_speeded_trial012_koala.wav,1,a,peeded,12,koala,860,correct,NA,Apr 25 2023 17:00:27,Friederike,1
62a1f,62a1f_session1_lista_speeded_trial013_pocket.wav,1,a,peeded,13,pocket,-1,wrong_word,NA,Apr 25 2023 17:00:35,Friederike,1
62a1f,62a1f_session1_lista_speeded_trial014_tomato.wav,1,a,peeded,14,tomato,651,correct,NA,Apr 25 2023 17:00:56,Friederike,1
62a1f,62a1f_session1_lista_speeded_trial015_peg.wav,1,a,peeded,15,peg,749,correct,NA,Apr 25 2023 17:01:17,Friederike,1
62a1f,62a1f_session1_lista_speeded_trial016_star.wav,1,a,peeded,16,star,573,correct,NA,Apr 25 2023 17:01:38,Friederike,1
62a1f,62a1f_session1_lista_speeded_trial017_zip.wav,1,a,peeded,17,zip,732,correct,NA,Apr 25 2023 17:02:05,Friederike,1
62a1f,62a1f_session1_lista_speeded_trial018_bottle.wav,1,a,peeded,18,bottle,630,correct,NA,Apr 25 2023 17:02:42,Friederike,1
62a1f,62a1f_session1_lista_speeded_trial019_train.wav,1,a,peeded,19,train,678,correct,NA,Apr 25 2023 17:03:01,Friederike,1
62a1f,62a1f_session1_lista_speeded_trial020_pepper.wav,1,a,peeded,20,pepper,743,correct,NA,Apr 25 2023 17:03:20,Friederike,1
62a1f,62a1f_session1_lista_speeded_trial021_pipe.wav,1,a,peeded,21,pipe,796,correct,NA,Apr 25 2023 17:03:45,Friederike,1
62a1f,62a1f_session1_lista_speeded_trial022_doctor.wav,1,a,peeded,22,doctor,795,correct,NA,Apr 25 2023 17:04:12,Friederike,1
62a1f,62a1f_session1_lista_speeded_trial023_avocado.wav,1,a,peeded,23,avocado,1134,correct,NA,Apr 25 2023 17:04:49,Friederike,1
62a1f,62a1f_session1_lista_speeded_trial024_pencil.wav,1,a,peeded,24,pencil,744,correct,NA,Apr 25 2023 17:05:19,Friederike,1
62a1f,62a1f_session1_lista_speeded_trial025_donkey.wav,1,a,peeded,25,donkey,955,correct,NA,Apr 25 2023 17:05:47,Friederike,1
62a1f,62a1f_session1_lista_speeded_trial026_lighter.wav,1,a,peeded,26,lighter,-1,wrong_word,NA,Apr 25 2023 17:06:01,Friederike,1
62a1f,62a1f_session1_lista_speeded_trial027_bus.wav,1,a,peeded,27,bus,659,correct,NA,Apr 25 2023 17:06:23,Friederike,1
62a1f,62a1f_session1_lista_speeded_trial028_fairy.wav,1,a,peeded,28,fairy,890,correct,NA,Apr 25 2023 17:07:12,Friederike,1
62a1f,62a1f_session1_lista_speeded_trial029_flag.wav,1,a,peeded,29,flag,659,correct,NA,Apr 25 2023 17:07:34,Friederike,1
62a1f,62a1f_session1_lista_speeded_trial030_tree.wav,1,a,peeded,30,tree,-1,uncertain,NA,Apr 25 2023 17:08:13,Friederike,1
62a1f,62a1f_session1_lista_speeded_trial031_bone.wav,1,a,peeded,31,bone,684,correct,NA,Apr 25 2023 17:08:31,Friederike,1
62a1f,62a1f_session1_lista_speeded_trial032_circle.wav,1,a,peeded,32,circle,-1,no_resp,NA,Apr 25 2023 17:08:38,Friederike,1
62a1f,62a1f_session1_lista_speeded_trial033_flower.wav,1,a,peeded,33,flower,-1,no_resp,NA,Apr 25 2023 17:08:45,Friederike,1
62a1f,62a1f_session1_lista_speeded_trial034_knife.wav,1,a,peeded,34,knife,702,correct,NA,Apr 25 2023 17:09:05,Friederike,1
62a1f,62a1f_session1_lista_speeded_trial035_plumber.wav,1,a,peeded,35,plumber,1071,correct,NA,Apr 25 2023 17:09:23,Friederike,1
62a1f,62a1f_session1_lista_speeded_trial036_fork.wav,1,a,peeded,36,fork,640,correct,NA,Apr 25 2023 17:10:07,Friederike,1
62a1f,62a1f_session1_lista_speeded_trial037_fox.wav,1,a,peeded,37,fox,679,correct,NA,Apr 25 2023 17:10:39,Friederike,1
62a1f,62a1f_session1_lista_speeded_trial038_bib.wav,1,a,peeded,38,bib,859,correct,NA,Apr 25 2023 17:11:02,Friederike,1
62a1f,62a1f_session1_lista_speeded_trial039_soap.wav,1,a,peeded,39,soap,1438,correct,NA,Apr 25 2023 17:11:34,Friederike,1
62a1f,62a1f_session1_lista_speeded_trial040_tambourine.wav,1,a,peeded,40,tambourine,1036,correct,NA,Apr 25 2023 17:11:56,Friederike,1
62a1f,62a1f_session1_lista_speeded_trial041_dress.wav,1,a,peeded,41,dress,882,correct,NA,Apr 25 2023 17:12:23,Friederike,1
62a1f,62a1f_session1_lista_speeded_trial042_wing.wav,1,a,peeded,42,wing,-1,wrong_word,NA,Apr 25 2023 17:12:30,Friederike,1
62a1f,62a1f_session1_lista_speeded_trial043_snake.wav,1,a,peeded,43,snake,615,correct,NA,Apr 25 2023 17:12:55,Friederike,1
62a1f,62a1f_session1_lista_speeded_trial044_sun.wav,1,a,peeded,44,sun,599,correct,NA,Apr 25 2023 17:13:24,Friederike,1
62a1f,62a1f_session1_lista_speeded_trial045_bracelet.wav,1,a,peeded,45,bracelet,-1,wrong_word,NA,Apr 25 2023 17:13:32,Friederike,1
62a1f,62a1f_session1_lista_speeded_trial046_apple.wav,1,a,peeded,46,apple,802,correct,NA,Apr 25 2023 17:13:59,Friederike,1
62a1f,62a1f_session1_lista_speeded_trial047_hat.wav,1,a,peeded,47,hat,528,correct,NA,Apr 25 2023 17:14:58,Friederike,1
62a1f,62a1f_session1_lista_speeded_trial048_arrow.wav,1,a,peeded,48,arrow,734,correct,NA,Apr 25 2023 17:15:17,Friederike,1
62a1f,62a1f_session1_lista_speeded_trial049_windmill.wav,1,a,peeded,49,windmill,751,correct,NA,Apr 29 2023 13:55:23,Friederike,1
62a1f,62a1f_session1_lista_speeded_trial050_curtain.wav,1,a,peeded,50,curtain,816,correct,NA,Apr 29 2023 13:56:00,Friederike,1
62a1f,62a1f_session1_lista_speeded_trial051_map.wav,1,a,peeded,51,map,991,correct,NA,Apr 29 2023 13:56:31,Friederike,1
62a1f,62a1f_session1_lista_speeded_trial052_potato.wav,1,a,peeded,52,potato,697,correct,NA,Apr 29 2023 13:57:00,Friederike,1
62a1f,62a1f_session1_lista_speeded_trial053_suitcase.wav,1,a,peeded,53,suitcase,690,correct,NA,Apr 29 2023 13:59:20,Friederike,1
62a1f,62a1f_session1_lista_speeded_trial054_tap.wav,1,a,peeded,54,tap,680,correct,NA,Apr 29 2023 13:59:41,Friederike,1
62a1f,62a1f_session1_lista_speeded_trial055_fence.wav,1,a,peeded,55,fence,620,correct,NA,Apr 29 2023 14:01:23,Friederike,1
62a1f,62a1f_session1_lista_speeded_trial056_bell.wav,1,a,peeded,56,bell,1009,correct,NA,Apr 29 2023 14:01:42,Friederike,1
62a1f,62a1f_session1_lista_speeded_trial057_queen.wav,1,a,peeded,57,queen,758,correct,NA,Apr 29 2023 14:02:03,Friederike,1
62a1f,62a1f_session1_lista_speeded_trial058_pear.wav,1,a,peeded,58,pear,638,correct,NA,Apr 29 2023 14:02:37,Friederike,1
62a1f,62a1f_session1_lista_speeded_trial059_drawer.wav,1,a,peeded,59,drawer,928,correct,NA,Apr 29 2023 14:03:54,Friederike,1
62a1f,62a1f_session1_lista_speeded_trial060_scissors.wav,1,a,peeded,60,scissors,887,correct,NA,Apr 29 2023 14:04:17,Friederike,1
62a1f,62a1f_session1_lista_speeded_trial061_lung.wav,1,a,peeded,61,lung,668,correct,NA,Apr 29 2023 14:04:41,Friederike,1
62a1f,62a1f_session1_lista_speeded_trial062_tunnel.wav,1,a,peeded,62,tunnel,810,correct,NA,Apr 29 2023 14:05:00,Friederike,1
62a1f,62a1f_session1_lista_speeded_trial063_triangle.wav,1,a,peeded,63,triangle,660,correct,NA,Apr 29 2023 14:05:19,Friederike,1
62a1f,62a1f_session1_lista_speeded_trial064_dummy.wav,1,a,peeded,64,dummy,738,correct,NA,Apr 29 2023 14:05:38,Friederike,1
62a1f,62a1f_session1_lista_speeded_trial065_crab.wav,1,a,peeded,65,crab,621,correct,NA,Apr 29 2023 14:05:58,Friederike,1
62a1f,62a1f_session1_lista_speeded_trial066_boxer.wav,1,a,peeded,66,boxer,708,correct,NA,Apr 29 2023 14:06:33,Friederike,1
62a1f,62a1f_session1_lista_speeded_trial067_suit.wav,1,a,peeded,67,suit,782,correct,NA,Apr 29 2023 14:06:53,Friederike,1
62a1f,62a1f_session1_lista_speeded_trial068_puppet.wav,1,a,peeded,68,puppet,-1,no_resp,NA,Apr 29 2023 14:07:00,Friederike,1
62a1f,62a1f_session1_lista_speeded_trial069_butter.wav,1,a,peeded,69,butter,715,correct,NA,Apr 29 2023 14:07:23,Friederike,1
62a1f,62a1f_session1_lista_speeded_trial070_doughnut.wav,1,a,peeded,70,doughnut,740,correct,NA,Apr 29 2023 14:07:39,Friederike,1
62a1f,62a1f_session1_lista_speeded_trial071_coat.wav,1,a,peeded,71,coat,691,correct,NA,Apr 29 2023 14:08:02,Friederike,1
62a1f,62a1f_session1_lista_speeded_trial072_arm.wav,1,a,peeded,72,arm,660,correct,NA,Apr 29 2023 14:08:24,Friederike,1
62a1f,62a1f_session1_lista_speeded_trial073_wave.wav,1,a,peeded,73,wave,800,correct,NA,Apr 29 2023 14:08:44,Friederike,1
62a1f,62a1f_session1_lista_speeded_trial074_clown.wav,1,a,peeded,74,clown,748,correct,NA,Apr 29 2023 14:09:14,Friederike,1
62a1f,62a1f_session1_lista_speeded_trial075_shield.wav,1,a,peeded,75,shield,849,correct,NA,Apr 29 2023 14:09:45,Friederike,1
62a1f,62a1f_session1_lista_speeded_trial076_wall.wav,1,a,peeded,76,wall,746,correct,NA,Apr 29 2023 14:10:03,Friederike,1
62a1f,62a1f_session1_lista_speeded_trial077_key.wav,1,a,peeded,77,key,726,correct,NA,Apr 29 2023 14:10:21,Friederike,1
62a1f,62a1f_session1_lista_speeded_trial078_sweet.wav,1,a,peeded,78,sweet,656,correct,NA,Apr 29 2023 14:10:53,Friederike,1
62a1f,62a1f_session1_lista_speeded_trial079_drum.wav,1,a,peeded,79,drum,750,correct,NA,Apr 29 2023 14:11:10,Friederike,1
62a1f,62a1f_session1_lista_speeded_trial080_robot.wav,1,a,peeded,80,robot,696,correct,NA,Apr 29 2023 14:11:28,Friederike,1
62a1f,62a1f_session1_lista_speeded_trial081_rocket.wav,1,a,peeded,81,rocket,741,correct,NA,Apr 29 2023 14:11:50,Friederike,1
62a1f,62a1f_session1_lista_speeded_trial082_goat.wav,1,a,peeded,82,goat,920,correct,NA,Apr 29 2023 14:12:15,Friederike,1
62a1f,62a1f_session1_lista_speeded_trial083_caterpillar.wav,1,a,peeded,83,caterpillar,-1,wrong_word,NA,Apr 29 2023 14:12:23,Friederike,1
62a1f,62a1f_session1_lista_speeded_trial084_tiger.wav,1,a,peeded,84,tiger,680,correct,NA,Apr 29 2023 14:12:43,Friederike,1
62a1f,62a1f_session1_lista_speeded_trial085_bench.wav,1,a,peeded,85,bench,681,correct,NA,Apr 29 2023 14:13:02,Friederike,1
62a1f,62a1f_session1_lista_speeded_trial086_rose.wav,1,a,peeded,86,rose,674,correct,NA,Apr 29 2023 14:13:15,Friederike,1
62a1f,62a1f_session1_lista_speeded_trial087_skirt.wav,1,a,peeded,87,skirt,905,correct,NA,Apr 29 2023 14:13:45,Friederike,1
62a1f,62a1f_session1_lista_speeded_trial088_net.wav,1,a,peeded,88,net,920,correct,NA,Apr 29 2023 14:14:55,Friederike,1
62a1f,62a1f_session1_lista_speeded_trial089_mouth.wav,1,a,peeded,89,mouth,686,correct,NA,Apr 29 2023 14:15:14,Friederike,1
62a1f,62a1f_session1_lista_speeded_trial090_mermaid.wav,1,a,peeded,90,mermaid,807,correct,NA,Apr 29 2023 14:15:31,Friederike,1
62a1f,62a1f_session1_lista_speeded_trial091_kite.wav,1,a,peeded,91,kite,1081,correct,NA,Apr 29 2023 14:16:21,Friederike,1
62a1f,62a1f_session1_lista_speeded_trial092_flipper.wav,1,a,peeded,92,flipper,1222,correct,NA,Apr 29 2023 14:16:48,Friederike,1
62a1f,62a1f_session1_lista_speeded_trial093_thumb.wav,1,a,peeded,93,thumb,737,correct,NA,Apr 29 2023 14:17:10,Friederike,1
62a1f,62a1f_session1_lista_speeded_trial094_nest.wav,1,a,peeded,94,nest,900,correct,NA,Apr 29 2023 14:17:37,Friederike,1
62a1f,62a1f_session1_lista_speeded_trial095_onion.wav,1,a,peeded,95,onion,752,correct,NA,Apr 29 2023 14:18:15,Friederike,1
62a1f,62a1f_session1_lista_speeded_trial096_fireplace.wav,1,a,peeded,96,fireplace,-1,wrong_word,NA,Apr 29 2023 14:18:22,Friederike,1
62a1f,62a1f_session1_lista_speeded_trial097_hippo.wav,1,a,peeded,97,hippo,-1,wrong_word,NA,Apr 29 2023 14:18:29,Friederike,1
62a1f,62a1f_session1_lista_speeded_trial098_computer.wav,1,a,peeded,98,computer,699,correct,NA,Apr 29 2023 14:18:47,Friederike,1
62a1f,62a1f_session1_lista_speeded_trial099_sausage.wav,1,a,peeded,99,sausage,708,correct,NA,Apr 29 2023 14:19:22,Friederike,1
62a1f,62a1f_session1_lista_speeded_trial100_bull.wav,1,a,peeded,100,bull,1324,correct,NA,Apr 29 2023 14:19:59,Friederike,1
62a1f,62a1f_session1_lista_speeded_trial101_jellyfish.wav,1,a,peeded,101,jellyfish,857,correct,NA,Apr 29 2023 14:20:15,Friederike,1
62a1f,62a1f_session1_lista_speeded_trial102_elbow.wav,1,a,peeded,102,elbow,-1,disfluency,NA,Apr 29 2023 14:20:24,Friederike,1
62a1f,62a1f_session1_lista_speeded_trial103_submarine.wav,1,a,peeded,103,submarine,859,correct,NA,Apr 29 2023 14:20:58,Friederike,1
62a1f,62a1f_session1_lista_speeded_trial104_lighthouse.wav,1,a,peeded,104,lighthouse,1135,correct,NA,Apr 29 2023 14:21:18,Friederike,1
62a1f,62a1f_session1_lista_speeded_trial105_judge.wav,1,a,peeded,105,judge,806,correct,NA,Apr 29 2023 14:21:37,Friederike,1
62a1f,62a1f_session1_lista_speeded_trial106_castle.wav,1,a,peeded,106,castle,770,correct,NA,Apr 29 2023 14:21:52,Friederike,1
62a1f,62a1f_session1_lista_speeded_trial107_magnet.wav,1,a,peeded,107,magnet,719,correct,NA,Apr 29 2023 14:22:25,Friederike,1
62a1f,62a1f_session1_lista_speeded_trial108_tractor.wav,1,a,peeded,108,tractor,673,correct,NA,Apr 29 2023 14:22:44,Friederike,1
62a1f,62a1f_session1_lista_speeded_trial109_sword.wav,1,a,peeded,109,sword,579,correct,NA,Apr 29 2023 14:23:14,Friederike,1
62a1f,62a1f_session1_lista_speeded_trial110_cherry.wav,1,a,peeded,110,cherry,794,correct,NA,Apr 29 2023 14:23:37,Friederike,1
62a1f,62a1f_session1_lista_speeded_trial111_mountain.wav,1,a,peeded,111,mountain,665,correct,NA,Apr 29 2023 14:23:56,Friederike,1
62a1f,62a1f_session1_lista_speeded_trial112_medal.wav,1,a,peeded,112,medal,690,correct,NA,Apr 29 2023 14:24:17,Friederike,1
62a1f,62a1f_session1_lista_speeded_trial113_bear.wav,1,a,peeded,113,bear,929,correct,NA,Apr 29 2023 14:24:32,Friederike,1
62a1f,62a1f_session1_lista_speeded_trial114_tie.wav,1,a,peeded,114,tie,839,correct,NA,Apr 29 2023 14:24:50,Friederike,1
62a1f,62a1f_session1_lista_speeded_trial115_island.wav,1,a,peeded,115,island,847,correct,NA,Apr 29 2023 14:25:21,Friederike,1
62a1f,62a1f_session1_lista_speeded_trial116_helicopter.wav,1,a,peeded,116,helicopter,636,correct,NA,Apr 29 2023 14:25:44,Friederike,1
62a1f,62a1f_session1_lista_speeded_trial117_shower.wav,1,a,peeded,117,shower,660,correct,NA,Apr 29 2023 14:26:10,Friederike,1
62a1f,62a1f_session1_lista_speeded_trial118_glove.wav,1,a,peeded,118,glove,676,correct,NA,Apr 29 2023 14:26:29,Friederike,1
62a1f,62a1f_session1_lista_speeded_trial119_teacher.wav,1,a,peeded,119,teacher,716,correct,NA,Apr 29 2023 14:26:46,Friederike,1
62a1f,62a1f_session1_lista_speeded_trial120_fridge.wav,1,a,peeded,120,fridge,683,correct,NA,Apr 29 2023 14:27:02,Friederike,1
62a1f,62a1f_session1_lista_speeded_trial121_cork.wav,1,a,peeded,121,cork,-1,wrong_word,NA,Apr 29 2023 14:27:12,Friederike,1
62a1f,62a1f_session1_lista_speeded_trial122_wheelbarrow.wav,1,a,peeded,122,wheelbarrow,723,correct,NA,Apr 29 2023 14:27:31,Friederike,1
62a1f,62a1f_session1_lista_speeded_trial123_kangaroo.wav,1,a,peeded,123,kangaroo,698,correct,NA,Apr 29 2023 14:27:46,Friederike,1
62a1f,62a1f_session1_lista_speeded_trial124_battery.wav,1,a,peeded,124,battery,671,correct,NA,Apr 29 2023 14:28:01,Friederike,1
62a1f,62a1f_session1_lista_speeded_trial125_basket.wav,1,a,peeded,125,basket,754,correct,NA,Apr 29 2023 14:28:17,Friederike,1
62a1f,62a1f_session1_lista_speeded_trial126_comb.wav,1,a,peeded,126,comb,662,correct,NA,Apr 29 2023 14:28:40,Friederike,1
62a1f,62a1f_session1_lista_speeded_trial127_ruler.wav,1,a,peeded,127,ruler,832,correct,NA,Apr 29 2023 14:28:56,Friederike,1
62a1f,62a1f_session1_lista_speeded_trial128_tattoo.wav,1,a,peeded,128,tattoo,902,correct,NA,Apr 29 2023 14:29:22,Friederike,1
62a1f,62a1f_session1_lista_speeded_trial129_lawnmower.wav,1,a,peeded,129,lawnmower,779,correct,NA,Apr 29 2023 14:29:47,Friederike,1
62a1f,62a1f_session1_lista_speeded_trial130_gym.wav,1,a,peeded,130,gym,888,correct,NA,Apr 29 2023 14:30:02,Friederike,1
62a1f,62a1f_session1_lista_speeded_trial131_rabbit.wav,1,a,peeded,131,rabbit,725,correct,NA,Apr 29 2023 14:30:31,Friederike,1
62a1f,62a1f_session1_lista_speeded_trial132_bullet.wav,1,a,peeded,132,bullet,732,correct,NA,Apr 29 2023 14:30:48,Friederike,1
62a1f,62a1f_session1_lista_speeded_trial133_lamp.wav,1,a,peeded,133,lamp,780,correct,NA,Apr 29 2023 14:31:04,Friederike,1
62a1f,62a1f_session1_lista_speeded_trial134_squirrel.wav,1,a,peeded,134,squirrel,712,correct,NA,Apr 29 2023 14:31:20,Friederike,1
62a1f,62a1f_session1_lista_speeded_trial135_camel.wav,1,a,peeded,135,camel,1109,correct,NA,Apr 29 2023 14:31:41,Friederike,1
62a1f,62a1f_session1_lista_speeded_trial136_zebra.wav,1,a,peeded,136,zebra,685,correct,NA,Apr 29 2023 14:32:07,Friederike,1
62a1f,62a1f_session1_lista_speeded_trial137_bike.wav,1,a,peeded,137,bike,629,correct,NA,Apr 29 2023 14:32:30,Friederike,1
62a1f,62a1f_session1_lista_speeded_trial138_kitchen.wav,1,a,peeded,138,kitchen,766,correct,NA,Apr 29 2023 14:32:48,Friederike,1
62a1f,62a1f_session1_lista_speeded_trial139_butterfly.wav,1,a,peeded,139,butterfly,700,correct,NA,Apr 29 2023 14:33:09,Friederike,1
62a1f,62a1f_session1_lista_speeded_trial140_beak.wav,1,a,peeded,140,beak,1104,correct,NA,Apr 29 2023 14:33:39,Friederike,1
62a1f,62a1f_session1_lista_speeded_trial141_shoe.wav,1,a,peeded,141,shoe,708,correct,NA,Apr 29 2023 14:33:59,Friederike,1
62a1f,62a1f_session1_lista_speeded_trial142_carrot.wav,1,a,peeded,142,carrot,1244,correct,NA,Apr 29 2023 14:34:15,Friederike,1
62a1f,62a1f_session1_lista_speeded_trial143_candle.wav,1,a,peeded,143,candle,687,correct,NA,Apr 29 2023 14:34:37,Friederike,1
62a1f,62a1f_session1_lista_speeded_trial144_compass.wav,1,a,peeded,144,compass,1174,correct,NA,Apr 29 2023 14:34:55,Friederike,1
62a1f,62a1f_session1_lista_speeded_trial145_tongue.wav,1,a,peeded,145,tongue,778,correct,NA,Apr 29 2023 14:35:09,Friederike,1
62a1f,62a1f_session1_lista_speeded_trial146_whale.wav,1,a,peeded,146,whale,-1,wrong_word,NA,Apr 29 2023 14:35:15,Friederike,1
62a1f,62a1f_session1_lista_speeded_trial147_limo.wav,1,a,peeded,147,limo,815,correct,NA,Apr 29 2023 14:35:30,Friederike,1
62a1f,62a1f_session1_lista_speeded_trial148_saw.wav,1,a,peeded,148,saw,729,correct,NA,Apr 29 2023 14:35:49,Friederike,1
62a1f,62a1f_session1_lista_speeded_trial149_olive.wav,1,a,peeded,149,olive,1095,correct,NA,Apr 29 2023 14:36:15,Friederike,1
62a1f,62a1f_session1_lista_speeded_trial150_orange.wav,1,a,peeded,150,orange,1051,correct,NA,Apr 29 2023 14:36:33,Friederike,1
