Participant_ID,File_Name,Session,List,Type_Trial,Trial_Nbr,Target,RT,Response_Trial,Comment,Date_Correction,Assessor_Name,Processed
5c994,5c994_session1_lista_speeded_trial001_jellyfish.wav,1,a,peeded,1,jellyfish,1365,correct,NA,Apr 21 2023 22:06:47,Radhika,1
5c994,5c994_session1_lista_speeded_trial002_fairy.wav,1,a,peeded,2,fairy,764,correct,NA,Apr 21 2023 19:06:58,Radhika,1
5c994,5c994_session1_lista_speeded_trial003_pocket.wav,1,a,peeded,3,pocket,854,correct,NA,Apr 21 2023 19:07:25,Radhika,1
5c994,5c994_session1_lista_speeded_trial004_shield.wav,1,a,peeded,4,shield,-1,disfluency,NA,Apr 21 2023 19:08:15,Radhika,1
5c994,5c994_session1_lista_speeded_trial005_pencil.wav,1,a,peeded,5,pencil,769,correct,NA,Apr 21 2023 19:09:01,Radhika,1
5c994,5c994_session1_lista_speeded_trial006_swan.wav,1,a,peeded,6,swan,717,correct,NA,Apr 21 2023 19:09:56,Radhika,1
5c994,5c994_session1_lista_speeded_trial007_ear.wav,1,a,peeded,7,ear,726,correct,NA,Apr 21 2023 19:10:16,Radhika,1
5c994,5c994_session1_lista_speeded_trial008_flipper.wav,1,a,peeded,8,flipper,1146,correct,NA,Apr 21 2023 19:10:41,Radhika,1
5c994,5c994_session1_lista_speeded_trial009_glove.wav,1,a,peeded,9,glove,829,correct,NA,Apr 21 2023 19:11:26,Radhika,1
5c994,5c994_session1_lista_speeded_trial010_tap.wav,1,a,peeded,10,tap,794,correct,NA,Apr 21 2023 19:11:57,Radhika,1
5c994,5c994_session1_lista_speeded_trial011_fork.wav,1,a,peeded,11,fork,643,correct,NA,Apr 21 2023 19:12:34,Radhika,1
5c994,5c994_session1_lista_speeded_trial012_kangaroo.wav,1,a,peeded,12,kangaroo,747,correct,NA,Apr 21 2023 19:13:11,Radhika,1
5c994,5c994_session1_lista_speeded_trial013_carrot.wav,1,a,peeded,13,carrot,666,correct,NA,Apr 21 2023 19:13:54,Radhika,1
5c994,5c994_session1_lista_speeded_trial014_boxer.wav,1,a,peeded,14,boxer,942,correct,NA,Apr 21 2023 19:15:16,Radhika,1
5c994,5c994_session1_lista_speeded_trial015_hippo.wav,1,a,peeded,15,hippo,-1,wrong_word,NA,Apr 21 2023 19:15:25,Radhika,1
5c994,5c994_session1_lista_speeded_trial016_sword.wav,1,a,peeded,16,sword,797,correct,NA,Apr 21 2023 19:15:50,Radhika,1
5c994,5c994_session1_lista_speeded_trial017_squirrel.wav,1,a,peeded,17,squirrel,746,correct,NA,Apr 21 2023 19:16:13,Radhika,1
5c994,5c994_session1_lista_speeded_trial018_tiger.wav,1,a,peeded,18,tiger,1060,correct,NA,Apr 21 2023 19:17:18,Radhika,1
5c994,5c994_session1_lista_speeded_trial019_bull.wav,1,a,peeded,19,bull,-1,wrong_word,NA,Apr 21 2023 19:17:39,Radhika,1
5c994,5c994_session1_lista_speeded_trial020_pipe.wav,1,a,peeded,20,pipe,778,correct,NA,Apr 21 2023 19:18:19,Radhika,1
5c994,5c994_session1_lista_speeded_trial021_doctor.wav,1,a,peeded,21,doctor,766,correct,NA,Apr 21 2023 19:18:50,Radhika,1
5c994,5c994_session1_lista_speeded_trial022_magnet.wav,1,a,peeded,22,magnet,1032,correct,NA,Apr 21 2023 19:19:03,Radhika,1
5c994,5c994_session1_lista_speeded_trial023_castle.wav,1,a,peeded,23,castle,859,correct,NA,Apr 21 2023 19:19:38,Radhika,1
5c994,5c994_session1_lista_speeded_trial024_kiwi.wav,1,a,peeded,24,kiwi,694,correct,NA,Apr 21 2023 19:20:11,Radhika,1
5c994,5c994_session1_lista_speeded_trial025_basket.wav,1,a,peeded,25,basket,711,correct,NA,Apr 21 2023 19:20:41,Radhika,1
5c994,5c994_session1_lista_speeded_trial026_avocado.wav,1,a,peeded,26,avocado,981,correct,NA,Apr 21 2023 19:21:42,Radhika,1
5c994,5c994_session1_lista_speeded_trial027_kitchen.wav,1,a,peeded,27,kitchen,736,correct,NA,Apr 21 2023 19:22:30,Radhika,1
5c994,5c994_session1_lista_speeded_trial028_ghost.wav,1,a,peeded,28,ghost,766,correct,NA,Apr 21 2023 19:23:04,Radhika,1
5c994,5c994_session1_lista_speeded_trial029_onion.wav,1,a,peeded,29,onion,1079,correct,NA,Apr 21 2023 19:23:52,Radhika,1
5c994,5c994_session1_lista_speeded_trial030_bear.wav,1,a,peeded,30,bear,778,correct,NA,Apr 21 2023 19:24:18,Radhika,1
5c994,5c994_session1_lista_speeded_trial031_rabbit.wav,1,a,peeded,31,rabbit,852,correct,NA,Apr 21 2023 19:24:38,Radhika,1
5c994,5c994_session1_lista_speeded_trial032_bone.wav,1,a,peeded,32,bone,863,correct,NA,Apr 21 2023 19:25:09,Radhika,1
5c994,5c994_session1_lista_speeded_trial033_limo.wav,1,a,peeded,33,limo,777,correct,NA,Apr 21 2023 19:25:45,Radhika,1
5c994,5c994_session1_lista_speeded_trial034_hat.wav,1,a,peeded,34,hat,699,correct,NA,Apr 21 2023 19:26:11,Radhika,1
5c994,5c994_session1_lista_speeded_trial035_bib.wav,1,a,peeded,35,bib,-1,wrong_word,NA,Apr 21 2023 19:26:22,Radhika,1
5c994,5c994_session1_lista_speeded_trial036_fireplace.wav,1,a,peeded,36,fireplace,1035,correct,NA,Apr 21 2023 19:26:50,Radhika,1
5c994,5c994_session1_lista_speeded_trial037_tree.wav,1,a,peeded,37,tree,791,correct,NA,Apr 21 2023 19:27:12,Radhika,1
5c994,5c994_session1_lista_speeded_trial038_zebra.wav,1,a,peeded,38,zebra,906,correct,NA,Apr 21 2023 19:27:46,Radhika,1
5c994,5c994_session1_lista_speeded_trial039_windmill.wav,1,a,peeded,39,windmill,932,correct,NA,Apr 21 2023 19:28:06,Radhika,1
5c994,5c994_session1_lista_speeded_trial040_butter.wav,1,a,peeded,40,butter,741,correct,NA,Apr 21 2023 19:28:44,Radhika,1
5c994,5c994_session1_lista_speeded_trial041_coat.wav,1,a,peeded,41,coat,609,correct,NA,Apr 21 2023 19:29:35,Radhika,1
5c994,5c994_session1_lista_speeded_trial042_bracelet.wav,1,a,peeded,42,bracelet,790,correct,NA,Apr 21 2023 19:30:49,Radhika,1
5c994,5c994_session1_lista_speeded_trial043_tattoo.wav,1,a,peeded,43,tattoo,1025,correct,NA,Apr 21 2023 19:32:52,Radhika,1
5c994,5c994_session1_lista_speeded_trial044_star.wav,1,a,peeded,44,star,618,correct,NA,Apr 21 2023 19:37:18,Radhika,1
5c994,5c994_session1_lista_speeded_trial045_beak.wav,1,a,peeded,45,beak,790,correct,NA,Apr 21 2023 19:37:35,Radhika,1
5c994,5c994_session1_lista_speeded_trial046_cherry.wav,1,a,peeded,46,cherry,700,correct,NA,Apr 21 2023 19:38:10,Radhika,1
5c994,5c994_session1_lista_speeded_trial047_saw.wav,1,a,peeded,47,saw,-1,wrong_word,NA,Apr 21 2023 19:38:18,Radhika,1
5c994,5c994_session1_lista_speeded_trial048_koala.wav,1,a,peeded,48,koala,1209,correct,NA,Apr 21 2023 19:38:44,Radhika,1
5c994,5c994_session1_lista_speeded_trial049_helicopter.wav,1,a,peeded,49,helicopter,785,correct,NA,Apr 21 2023 19:39:22,Radhika,1
5c994,5c994_session1_lista_speeded_trial050_mermaid.wav,1,a,peeded,50,mermaid,-1,correct,NA,Apr 21 2023 19:39:35,Radhika,1
5c994,5c994_session1_lista_speeded_trial051_thumb.wav,1,a,peeded,51,thumb,699,correct,NA,Apr 21 2023 19:40:12,Radhika,1
5c994,5c994_session1_lista_speeded_trial052_tie.wav,1,a,peeded,52,tie,743,correct,NA,Apr 21 2023 19:41:14,Radhika,1
5c994,5c994_session1_lista_speeded_trial053_pineapple.wav,1,a,peeded,53,pineapple,1021,correct,NA,Apr 21 2023 19:41:43,Radhika,1
5c994,5c994_session1_lista_speeded_trial054_lighter.wav,1,a,peeded,54,lighter,958,correct,NA,Apr 21 2023 19:42:07,Radhika,1
5c994,5c994_session1_lista_speeded_trial055_kite.wav,1,a,peeded,55,kite,917,correct,NA,Apr 21 2023 19:42:43,Radhika,1
5c994,5c994_session1_lista_speeded_trial056_puppet.wav,1,a,peeded,56,puppet,-1,no_resp,NA,Apr 21 2023 19:42:49,Radhika,1
5c994,5c994_session1_lista_speeded_trial057_bench.wav,1,a,peeded,57,bench,892,correct,NA,Apr 21 2023 19:43:11,Radhika,1
5c994,5c994_session1_lista_speeded_trial058_queen.wav,1,a,peeded,58,queen,695,correct,NA,Apr 21 2023 19:43:30,Radhika,1
5c994,5c994_session1_lista_speeded_trial059_arrow.wav,1,a,peeded,59,arrow,796,correct,NA,Apr 21 2023 19:43:56,Radhika,1
5c994,5c994_session1_lista_speeded_trial060_nest.wav,1,a,peeded,60,nest,1097,correct,NA,Apr 21 2023 19:44:09,Radhika,1
5c994,5c994_session1_lista_speeded_trial061_dice.wav,1,a,peeded,61,dice,1030,correct,NA,Apr 21 2023 19:44:50,Radhika,1
5c994,5c994_session1_lista_speeded_trial062_apple.wav,1,a,peeded,62,apple,887,correct,NA,Apr 21 2023 19:45:11,Radhika,1
5c994,5c994_session1_lista_speeded_trial063_lung.wav,1,a,peeded,63,lung,740,correct,NA,Apr 21 2023 19:45:24,Radhika,1
5c994,5c994_session1_lista_speeded_trial064_tomato.wav,1,a,peeded,64,tomato,851,correct,NA,Apr 21 2023 19:45:50,Radhika,1
5c994,5c994_session1_lista_speeded_trial065_tray.wav,1,a,peeded,65,tray,800,correct,NA,Apr 21 2023 19:47:05,Radhika,1
5c994,5c994_session1_lista_speeded_trial066_whale.wav,1,a,peeded,66,whale,894,correct,NA,Apr 21 2023 19:47:16,Radhika,1
5c994,5c994_session1_lista_speeded_trial067_circle.wav,1,a,peeded,67,circle,-1,no_resp,NA,Apr 21 2023 19:47:21,Radhika,1
5c994,5c994_session1_lista_speeded_trial068_map.wav,1,a,peeded,68,map,944,correct,NA,Apr 21 2023 19:47:36,Radhika,1
5c994,5c994_session1_lista_speeded_trial069_donkey.wav,1,a,peeded,69,donkey,942,correct,NA,Apr 21 2023 19:48:00,Radhika,1
5c994,5c994_session1_lista_speeded_trial070_book.wav,1,a,peeded,70,book,679,correct,NA,Apr 21 2023 19:48:35,Radhika,1
5c994,5c994_session1_lista_speeded_trial071_elbow.wav,1,a,peeded,71,elbow,783,correct,NA,Apr 21 2023 19:49:16,Radhika,1
5c994,5c994_session1_lista_speeded_trial072_comb.wav,1,a,peeded,72,comb,722,correct,NA,Apr 21 2023 19:49:38,Radhika,1
5c994,5c994_session1_lista_speeded_trial073_scissors.wav,1,a,peeded,73,scissors,702,correct,NA,Apr 21 2023 19:50:03,Radhika,1
5c994,5c994_session1_lista_speeded_trial074_key.wav,1,a,peeded,74,key,743,correct,NA,Apr 21 2023 19:50:49,Radhika,1
5c994,5c994_session1_lista_speeded_trial075_lamp.wav,1,a,peeded,75,lamp,630,correct,NA,Apr 21 2023 19:51:00,Radhika,1
5c994,5c994_session1_lista_speeded_trial076_robot.wav,1,a,peeded,76,robot,856,correct,NA,Apr 21 2023 20:58:15,Radhika,1
5c994,5c994_session1_lista_speeded_trial077_knife.wav,1,a,peeded,77,knife,651,correct,NA,Apr 21 2023 20:58:52,Radhika,1
5c994,5c994_session1_lista_speeded_trial078_wave.wav,1,a,peeded,78,wave,847,correct,NA,Apr 21 2023 20:59:03,Radhika,1
5c994,5c994_session1_lista_speeded_trial079_arm.wav,1,a,peeded,79,arm,833,correct,NA,Apr 21 2023 20:59:45,Radhika,1
5c994,5c994_session1_lista_speeded_trial080_wing.wav,1,a,peeded,80,wing,770,correct,NA,Apr 21 2023 21:00:04,Radhika,1
5c994,5c994_session1_lista_speeded_trial081_flower.wav,1,a,peeded,81,flower,738,correct,NA,Apr 21 2023 21:00:42,Radhika,1
5c994,5c994_session1_lista_speeded_trial082_island.wav,1,a,peeded,82,island,888,correct,NA,Apr 21 2023 21:01:09,Radhika,1
5c994,5c994_session1_lista_speeded_trial083_butterfly.wav,1,a,peeded,83,butterfly,950,correct,NA,Apr 21 2023 21:01:30,Radhika,1
5c994,5c994_session1_lista_speeded_trial084_zip.wav,1,a,peeded,84,zip,788,correct,NA,Apr 21 2023 21:01:56,Radhika,1
5c994,5c994_session1_lista_speeded_trial085_camel.wav,1,a,peeded,85,camel,788,correct,NA,Apr 21 2023 21:02:40,Radhika,1
5c994,5c994_session1_lista_speeded_trial086_gym.wav,1,a,peeded,86,gym,910,correct,NA,Apr 21 2023 21:03:24,Radhika,1
5c994,5c994_session1_lista_speeded_trial087_mountain.wav,1,a,peeded,87,mountain,1079,correct,NA,Apr 21 2023 21:03:41,Radhika,1
5c994,5c994_session1_lista_speeded_trial088_rocket.wav,1,a,peeded,88,rocket,869,correct,NA,Apr 21 2023 21:04:01,Radhika,1
5c994,5c994_session1_lista_speeded_trial089_drum.wav,1,a,peeded,89,drum,777,correct,NA,Apr 21 2023 21:04:41,Radhika,1
5c994,5c994_session1_lista_speeded_trial090_mouth.wav,1,a,peeded,90,mouth,807,correct,NA,Apr 21 2023 21:04:55,Radhika,1
5c994,5c994_session1_lista_speeded_trial091_curtain.wav,1,a,peeded,91,curtain,909,correct,NA,Apr 21 2023 21:05:30,Radhika,1
5c994,5c994_session1_lista_speeded_trial092_bottle.wav,1,a,peeded,92,bottle,797,correct,NA,Apr 21 2023 21:05:48,Radhika,1
5c994,5c994_session1_lista_speeded_trial093_sausage.wav,1,a,peeded,93,sausage,728,correct,NA,Apr 21 2023 21:06:19,Radhika,1
5c994,5c994_session1_lista_speeded_trial094_wall.wav,1,a,peeded,94,wall,802,correct,NA,Apr 21 2023 21:06:48,Radhika,1
5c994,5c994_session1_lista_speeded_trial095_sweet.wav,1,a,peeded,95,sweet,708,correct,NA,Apr 21 2023 21:07:18,Radhika,1
5c994,5c994_session1_lista_speeded_trial096_bullet.wav,1,a,peeded,96,bullet,1162,correct,NA,Apr 21 2023 21:07:36,Radhika,1
5c994,5c994_session1_lista_speeded_trial097_tractor.wav,1,a,peeded,97,tractor,723,correct,NA,Apr 21 2023 21:08:03,Radhika,1
5c994,5c994_session1_lista_speeded_trial098_triangle.wav,1,a,peeded,98,triangle,932,correct,NA,Apr 21 2023 21:08:28,Radhika,1
5c994,5c994_session1_lista_speeded_trial099_potato.wav,1,a,peeded,99,potato,967,correct,NA,Apr 21 2023 21:08:58,Radhika,1
5c994,5c994_session1_lista_speeded_trial100_olive.wav,1,a,peeded,100,olive,1253,correct,NA,Apr 21 2023 21:09:53,Radhika,1
5c994,5c994_session1_lista_speeded_trial101_dummy.wav,1,a,peeded,101,dummy,1032,correct,NA,Apr 21 2023 21:10:30,Radhika,1
5c994,5c994_session1_lista_speeded_trial102_battery.wav,1,a,peeded,102,battery,847,correct,NA,Apr 21 2023 21:10:53,Radhika,1
5c994,5c994_session1_lista_speeded_trial103_lighthouse.wav,1,a,peeded,103,lighthouse,1021,correct,NA,Apr 21 2023 21:11:08,Radhika,1
5c994,5c994_session1_lista_speeded_trial104_owl.wav,1,a,peeded,104,owl,831,correct,NA,Apr 21 2023 21:11:42,Radhika,1
5c994,5c994_session1_lista_speeded_trial105_snake.wav,1,a,peeded,105,snake,669,correct,NA,Apr 21 2023 21:12:04,Radhika,1
5c994,5c994_session1_lista_speeded_trial106_bell.wav,1,a,peeded,106,bell,942,correct,NA,Apr 21 2023 21:12:17,Radhika,1
5c994,5c994_session1_lista_speeded_trial107_crab.wav,1,a,peeded,107,crab,853,correct,NA,Apr 21 2023 21:12:57,Radhika,1
5c994,5c994_session1_lista_speeded_trial108_ruler.wav,1,a,peeded,108,ruler,757,correct,NA,Apr 21 2023 21:13:40,Radhika,1
5c994,5c994_session1_lista_speeded_trial109_shower.wav,1,a,peeded,109,shower,973,correct,NA,Apr 21 2023 21:14:29,Radhika,1
5c994,5c994_session1_lista_speeded_trial110_computer.wav,1,a,peeded,110,computer,729,correct,NA,Apr 21 2023 21:15:03,Radhika,1
5c994,5c994_session1_lista_speeded_trial111_candle.wav,1,a,peeded,111,candle,931,correct,NA,Apr 21 2023 21:16:00,Radhika,1
5c994,5c994_session1_lista_speeded_trial112_teacher.wav,1,a,peeded,112,teacher,866,correct,NA,Apr 21 2023 21:16:46,Radhika,1
5c994,5c994_session1_lista_speeded_trial113_orange.wav,1,a,peeded,113,orange,730,correct,NA,Apr 21 2023 21:16:58,Radhika,1
5c994,5c994_session1_lista_speeded_trial114_drawer.wav,1,a,peeded,114,drawer,750,correct,NA,Apr 21 2023 21:17:26,Radhika,1
5c994,5c994_session1_lista_speeded_trial115_flag.wav,1,a,peeded,115,flag,744,correct,NA,Apr 21 2023 21:17:50,Radhika,1
5c994,5c994_session1_lista_speeded_trial116_bike.wav,1,a,peeded,116,bike,777,correct,NA,Apr 21 2023 21:18:17,Radhika,1
5c994,5c994_session1_lista_speeded_trial117_pear.wav,1,a,peeded,117,pear,754,correct,NA,Apr 21 2023 21:18:40,Radhika,1
5c994,5c994_session1_lista_speeded_trial118_fridge.wav,1,a,peeded,118,fridge,778,correct,NA,Apr 21 2023 21:19:24,Radhika,1
5c994,5c994_session1_lista_speeded_trial119_compass.wav,1,a,peeded,119,compass,859,correct,NA,Apr 21 2023 21:20:03,Radhika,1
5c994,5c994_session1_lista_speeded_trial120_submarine.wav,1,a,peeded,120,submarine,-1,no_resp,NA,Apr 21 2023 21:20:09,Radhika,1
5c994,5c994_session1_lista_speeded_trial121_fox.wav,1,a,peeded,121,fox,766,correct,NA,Apr 21 2023 21:20:53,Radhika,1
5c994,5c994_session1_lista_speeded_trial122_goat.wav,1,a,peeded,122,goat,780,correct,NA,Apr 21 2023 21:21:41,Radhika,1
5c994,5c994_session1_lista_speeded_trial123_bus.wav,1,a,peeded,123,bus,777,correct,NA,Apr 21 2023 21:22:02,Radhika,1
5c994,5c994_session1_lista_speeded_trial124_rhino.wav,1,a,peeded,124,rhino,781,correct,NA,Apr 21 2023 21:22:24,Radhika,1
5c994,5c994_session1_lista_speeded_trial125_lawnmower.wav,1,a,peeded,125,lawnmower,849,correct,NA,Apr 21 2023 21:22:35,Radhika,1
5c994,5c994_session1_lista_speeded_trial126_tambourine.wav,1,a,peeded,126,tambourine,-1,wrong_word,NA,Apr 21 2023 21:22:42,Radhika,1
5c994,5c994_session1_lista_speeded_trial127_plumber.wav,1,a,peeded,127,plumber,-1,no_resp,NA,Apr 21 2023 21:22:47,Radhika,1
5c994,5c994_session1_lista_speeded_trial128_sun.wav,1,a,peeded,128,sun,725,correct,NA,Apr 21 2023 21:23:23,Radhika,1
5c994,5c994_session1_lista_speeded_trial129_clown.wav,1,a,peeded,129,clown,831,correct,NA,Apr 21 2023 21:24:05,Radhika,1
5c994,5c994_session1_lista_speeded_trial130_medal.wav,1,a,peeded,130,medal,907,correct,NA,Apr 21 2023 21:24:18,Radhika,1
5c994,5c994_session1_lista_speeded_trial131_suit.wav,1,a,peeded,131,suit,674,correct,NA,Apr 21 2023 21:24:34,Radhika,1
5c994,5c994_session1_lista_speeded_trial132_cork.wav,1,a,peeded,132,cork,-1,no_resp,NA,Apr 21 2023 21:24:39,Radhika,1
5c994,5c994_session1_lista_speeded_trial133_doughnut.wav,1,a,peeded,133,doughnut,832,correct,NA,Apr 21 2023 21:25:32,Radhika,1
5c994,5c994_session1_lista_speeded_trial134_wheelbarrow.wav,1,a,peeded,134,wheelbarrow,-1,wrong_word,NA,Apr 21 2023 21:25:40,Radhika,1
5c994,5c994_session1_lista_speeded_trial135_tunnel.wav,1,a,peeded,135,tunnel,888,correct,NA,Apr 21 2023 21:25:54,Radhika,1
5c994,5c994_session1_lista_speeded_trial136_soap.wav,1,a,peeded,136,soap,857,correct,NA,Apr 21 2023 21:26:06,Radhika,1
5c994,5c994_session1_lista_speeded_trial137_tongue.wav,1,a,peeded,137,tongue,1086,correct,NA,Apr 21 2023 21:26:23,Radhika,1
5c994,5c994_session1_lista_speeded_trial138_train.wav,1,a,peeded,138,train,812,correct,NA,Apr 21 2023 21:27:11,Radhika,1
5c994,5c994_session1_lista_speeded_trial139_rose.wav,1,a,peeded,139,rose,692,correct,NA,Apr 21 2023 21:27:24,Radhika,1
5c994,5c994_session1_lista_speeded_trial140_suitcase.wav,1,a,peeded,140,suitcase,691,correct,NA,Apr 21 2023 21:27:44,Radhika,1
5c994,5c994_session1_lista_speeded_trial141_net.wav,1,a,peeded,141,net,718,correct,NA,Apr 21 2023 21:27:55,Radhika,1
5c994,5c994_session1_lista_speeded_trial142_judge.wav,1,a,peeded,142,judge,-1,wrong_word,NA,Apr 21 2023 21:28:02,Radhika,1
5c994,5c994_session1_lista_speeded_trial143_heel.wav,1,a,peeded,143,heel,861,correct,NA,Apr 21 2023 21:28:45,Radhika,1
5c994,5c994_session1_lista_speeded_trial144_pepper.wav,1,a,peeded,144,pepper,925,correct,NA,Apr 21 2023 21:29:07,Radhika,1
5c994,5c994_session1_lista_speeded_trial145_fence.wav,1,a,peeded,145,fence,-1,wrong_word,NA,Apr 21 2023 21:30:01,Radhika,1
5c994,5c994_session1_lista_speeded_trial146_shoe.wav,1,a,peeded,146,shoe,719,correct,NA,Apr 21 2023 21:30:20,Radhika,1
5c994,5c994_session1_lista_speeded_trial147_dress.wav,1,a,peeded,147,dress,-1,correct,NA,Apr 21 2023 21:30:39,Radhika,1
5c994,5c994_session1_lista_speeded_trial148_peg.wav,1,a,peeded,148,peg,1228,correct,NA,Apr 21 2023 21:31:01,Radhika,1
5c994,5c994_session1_lista_speeded_trial149_skirt.wav,1,a,peeded,149,skirt,803,correct,NA,Apr 21 2023 21:31:39,Radhika,1
5c994,5c994_session1_lista_speeded_trial150_caterpillar.wav,1,a,peeded,150,caterpillar,863,correct,NA,Apr 21 2023 21:32:07,Radhika,1
