Participant_ID,File_Name,Session,List,Type_Trial,Trial_Nbr,Target,RT,Response_Trial,Comment,Date_Correction,Assessor_Name,Processed
60dca,60dca_session1_lista_speeded_trial001_puppet.wav,1,a,peeded,1,puppet,861,correct,NA,Apr 17 2023 18:18:47,Agnieszka,1
60dca,60dca_session1_lista_speeded_trial002_wheelbarrow.wav,1,a,peeded,2,wheelbarrow,1181,correct,last syllable cut off,Apr 17 2023 18:18:56,Agnieszka,1
60dca,60dca_session1_lista_speeded_trial003_circle.wav,1,a,peeded,3,circle,-1,no_resp,NA,Apr 17 2023 18:19:03,Agnieszka,1
60dca,60dca_session1_lista_speeded_trial004_heel.wav,1,a,peeded,4,heel,1196,correct,NA,Apr 17 2023 18:19:13,Agnieszka,1
60dca,60dca_session1_lista_speeded_trial005_fork.wav,1,a,peeded,5,fork,744,correct,NA,Apr 17 2023 18:20:10,Agnieszka,1
60dca,60dca_session1_lista_speeded_trial006_submarine.wav,1,a,peeded,6,submarine,1028,correct,slightly cutoff,Apr 17 2023 18:20:19,Agnieszka,1
60dca,60dca_session1_lista_speeded_trial007_pepper.wav,1,a,peeded,7,pepper,867,correct,NA,Apr 17 2023 18:20:29,Agnieszka,1
60dca,60dca_session1_lista_speeded_trial008_rhino.wav,1,a,peeded,8,rhino,783,correct,NA,Apr 17 2023 18:20:46,Agnieszka,1
60dca,60dca_session1_lista_speeded_trial009_map.wav,1,a,peeded,9,map,845,correct,NA,Apr 17 2023 18:20:53,Agnieszka,1
60dca,60dca_session1_lista_speeded_trial010_pencil.wav,1,a,peeded,10,pencil,736,correct,NA,Apr 17 2023 18:21:00,Agnieszka,1
60dca,60dca_session1_lista_speeded_trial011_kitchen.wav,1,a,peeded,11,kitchen,830,correct,NA,Apr 17 2023 18:21:05,Agnieszka,1
60dca,60dca_session1_lista_speeded_trial012_triangle.wav,1,a,peeded,12,triangle,689,correct,NA,Apr 17 2023 18:21:11,Agnieszka,1
60dca,60dca_session1_lista_speeded_trial013_plumber.wav,1,a,peeded,13,plumber,1301,correct,slightly cut off,Apr 17 2023 18:21:24,Agnieszka,1
60dca,60dca_session1_lista_speeded_trial014_bone.wav,1,a,peeded,14,bone,1024,correct,NA,Apr 17 2023 18:21:29,Agnieszka,1
60dca,60dca_session1_lista_speeded_trial015_owl.wav,1,a,peeded,15,owl,771,correct,NA,Apr 17 2023 18:21:34,Agnieszka,1
60dca,60dca_session1_lista_speeded_trial016_medal.wav,1,a,peeded,16,medal,904,correct,NA,Apr 17 2023 18:21:40,Agnieszka,1
60dca,60dca_session1_lista_speeded_trial017_doughnut.wav,1,a,peeded,17,doughnut,802,correct,NA,Apr 17 2023 18:21:47,Agnieszka,1
60dca,60dca_session1_lista_speeded_trial018_pocket.wav,1,a,peeded,18,pocket,847,correct,NA,Apr 17 2023 18:21:54,Agnieszka,1
60dca,60dca_session1_lista_speeded_trial019_cherry.wav,1,a,peeded,19,cherry,1078,correct,NA,Apr 17 2023 18:22:00,Agnieszka,1
60dca,60dca_session1_lista_speeded_trial020_sun.wav,1,a,peeded,20,sun,898,correct,NA,Apr 17 2023 18:22:06,Agnieszka,1
60dca,60dca_session1_lista_speeded_trial021_lighter.wav,1,a,peeded,21,lighter,844,correct,NA,Apr 17 2023 18:22:12,Agnieszka,1
60dca,60dca_session1_lista_speeded_trial022_tunnel.wav,1,a,peeded,22,tunnel,770,correct,NA,Apr 17 2023 18:22:22,Agnieszka,1
60dca,60dca_session1_lista_speeded_trial023_knife.wav,1,a,peeded,23,knife,797,correct,NA,Apr 17 2023 18:22:28,Agnieszka,1
60dca,60dca_session1_lista_speeded_trial024_zip.wav,1,a,peeded,24,zip,744,correct,NA,Apr 17 2023 18:22:34,Agnieszka,1
60dca,60dca_session1_lista_speeded_trial025_suit.wav,1,a,peeded,25,suit,832,correct,NA,Apr 17 2023 18:22:39,Agnieszka,1
60dca,60dca_session1_lista_speeded_trial026_island.wav,1,a,peeded,26,island,896,correct,NA,Apr 17 2023 18:22:44,Agnieszka,1
60dca,60dca_session1_lista_speeded_trial027_drum.wav,1,a,peeded,27,drum,810,correct,NA,Apr 17 2023 18:22:52,Agnieszka,1
60dca,60dca_session1_lista_speeded_trial028_tattoo.wav,1,a,peeded,28,tattoo,975,correct,NA,Apr 17 2023 18:23:02,Agnieszka,1
60dca,60dca_session1_lista_speeded_trial029_donkey.wav,1,a,peeded,29,donkey,871,correct,NA,Apr 17 2023 18:23:15,Agnieszka,1
60dca,60dca_session1_lista_speeded_trial030_fairy.wav,1,a,peeded,30,fairy,1046,correct,NA,Apr 17 2023 18:23:22,Agnieszka,1
60dca,60dca_session1_lista_speeded_trial031_crab.wav,1,a,peeded,31,crab,830,correct,NA,Apr 17 2023 18:23:29,Agnieszka,1
60dca,60dca_session1_lista_speeded_trial032_caterpillar.wav,1,a,peeded,32,caterpillar,847,correct,NA,Apr 17 2023 18:23:35,Agnieszka,1
60dca,60dca_session1_lista_speeded_trial033_candle.wav,1,a,peeded,33,candle,791,correct,NA,Apr 17 2023 18:23:50,Agnieszka,1
60dca,60dca_session1_lista_speeded_trial034_wave.wav,1,a,peeded,34,wave,763,correct,NA,Apr 17 2023 18:23:56,Agnieszka,1
60dca,60dca_session1_lista_speeded_trial035_queen.wav,1,a,peeded,35,queen,898,correct,NA,Apr 17 2023 18:24:01,Agnieszka,1
60dca,60dca_session1_lista_speeded_trial036_orange.wav,1,a,peeded,36,orange,909,correct,NA,Apr 17 2023 18:24:07,Agnieszka,1
60dca,60dca_session1_lista_speeded_trial037_bull.wav,1,a,peeded,37,bull,898,correct,NA,Apr 17 2023 18:24:18,Agnieszka,1
60dca,60dca_session1_lista_speeded_trial038_coat.wav,1,a,peeded,38,coat,-1,no_resp,NA,Apr 17 2023 18:24:28,Agnieszka,1
60dca,60dca_session1_lista_speeded_trial039_basket.wav,1,a,peeded,39,basket,834,correct,NA,Apr 17 2023 18:24:33,Agnieszka,1
60dca,60dca_session1_lista_speeded_trial040_tap.wav,1,a,peeded,40,tap,773,correct,NA,Apr 17 2023 18:24:38,Agnieszka,1
60dca,60dca_session1_lista_speeded_trial041_whale.wav,1,a,peeded,41,whale,1070,correct,NA,Apr 17 2023 18:24:46,Agnieszka,1
60dca,60dca_session1_lista_speeded_trial042_mermaid.wav,1,a,peeded,42,mermaid,903,correct,NA,Apr 17 2023 18:24:52,Agnieszka,1
60dca,60dca_session1_lista_speeded_trial043_arm.wav,1,a,peeded,43,arm,943,correct,NA,Apr 17 2023 18:24:57,Agnieszka,1
60dca,60dca_session1_lista_speeded_trial044_kiwi.wav,1,a,peeded,44,kiwi,797,correct,NA,Apr 17 2023 18:25:03,Agnieszka,1
60dca,60dca_session1_lista_speeded_trial045_ear.wav,1,a,peeded,45,ear,877,correct,NA,Apr 17 2023 18:25:08,Agnieszka,1
60dca,60dca_session1_lista_speeded_trial046_limo.wav,1,a,peeded,46,limo,783,correct,NA,Apr 17 2023 18:25:13,Agnieszka,1
60dca,60dca_session1_lista_speeded_trial047_butter.wav,1,a,peeded,47,butter,879,correct,NA,Apr 17 2023 18:25:18,Agnieszka,1
60dca,60dca_session1_lista_speeded_trial048_hippo.wav,1,a,peeded,48,hippo,756,correct,NA,Apr 17 2023 18:25:24,Agnieszka,1
60dca,60dca_session1_lista_speeded_trial049_bench.wav,1,a,peeded,49,bench,1358,correct,slightly cut off,Apr 17 2023 18:25:35,Agnieszka,1
60dca,60dca_session1_lista_speeded_trial050_snake.wav,1,a,peeded,50,snake,965,correct,NA,Apr 17 2023 18:25:40,Agnieszka,1
60dca,60dca_session1_lista_speeded_trial051_dummy.wav,1,a,peeded,51,dummy,925,correct,NA,Apr 17 2023 18:25:45,Agnieszka,1
60dca,60dca_session1_lista_speeded_trial052_pipe.wav,1,a,peeded,52,pipe,781,correct,NA,Apr 17 2023 18:25:51,Agnieszka,1
60dca,60dca_session1_lista_speeded_trial053_nest.wav,1,a,peeded,53,nest,903,correct,NA,Apr 17 2023 18:27:07,Agnieszka,1
60dca,60dca_session1_lista_speeded_trial054_boxer.wav,1,a,peeded,54,boxer,793,correct,NA,Apr 17 2023 18:27:13,Agnieszka,1
60dca,60dca_session1_lista_speeded_trial055_pear.wav,1,a,peeded,55,pear,817,correct,NA,Apr 17 2023 18:27:19,Agnieszka,1
60dca,60dca_session1_lista_speeded_trial056_goat.wav,1,a,peeded,56,goat,940,correct,NA,Apr 17 2023 18:27:32,Agnieszka,1
60dca,60dca_session1_lista_speeded_trial057_lawnmower.wav,1,a,peeded,57,lawnmower,1034,correct,last syllable cut off,Apr 17 2023 18:27:44,Agnieszka,1
60dca,60dca_session1_lista_speeded_trial058_carrot.wav,1,a,peeded,58,carrot,928,correct,NA,Apr 17 2023 18:27:49,Agnieszka,1
60dca,60dca_session1_lista_speeded_trial059_clown.wav,1,a,peeded,59,clown,957,correct,NA,Apr 17 2023 18:27:55,Agnieszka,1
60dca,60dca_session1_lista_speeded_trial060_koala.wav,1,a,peeded,60,koala,818,correct,NA,Apr 17 2023 18:28:03,Agnieszka,1
60dca,60dca_session1_lista_speeded_trial061_cork.wav,1,a,peeded,61,cork,883,correct,NA,Apr 17 2023 18:28:09,Agnieszka,1
60dca,60dca_session1_lista_speeded_trial062_bib.wav,1,a,peeded,62,bib,979,correct,NA,Apr 17 2023 18:28:15,Agnieszka,1
60dca,60dca_session1_lista_speeded_trial063_jellyfish.wav,1,a,peeded,63,jellyfish,793,correct,NA,Apr 17 2023 18:28:20,Agnieszka,1
60dca,60dca_session1_lista_speeded_trial064_butterfly.wav,1,a,peeded,64,butterfly,727,correct,NA,Apr 17 2023 18:28:25,Agnieszka,1
60dca,60dca_session1_lista_speeded_trial065_pineapple.wav,1,a,peeded,65,pineapple,700,correct,NA,Apr 17 2023 18:28:30,Agnieszka,1
60dca,60dca_session1_lista_speeded_trial066_gym.wav,1,a,peeded,66,gym,1392,correct,slightly cut off,Apr 17 2023 18:28:39,Agnieszka,1
60dca,60dca_session1_lista_speeded_trial067_castle.wav,1,a,peeded,67,castle,1007,correct,NA,Apr 17 2023 18:28:45,Agnieszka,1
60dca,60dca_session1_lista_speeded_trial068_bus.wav,1,a,peeded,68,bus,1242,correct,NA,Apr 17 2023 18:28:50,Agnieszka,1
60dca,60dca_session1_lista_speeded_trial069_tambourine.wav,1,a,peeded,69,tambourine,1083,correct,slightly cut off,Apr 17 2023 18:28:57,Agnieszka,1
60dca,60dca_session1_lista_speeded_trial070_dice.wav,1,a,peeded,70,dice,859,correct,NA,Apr 17 2023 18:29:05,Agnieszka,1
60dca,60dca_session1_lista_speeded_trial071_flag.wav,1,a,peeded,71,flag,810,correct,NA,Apr 17 2023 18:29:09,Agnieszka,1
60dca,60dca_session1_lista_speeded_trial072_tongue.wav,1,a,peeded,72,tongue,1115,correct,NA,Apr 17 2023 18:29:15,Agnieszka,1
60dca,60dca_session1_lista_speeded_trial073_soap.wav,1,a,peeded,73,soap,876,correct,NA,Apr 17 2023 18:29:20,Agnieszka,1
60dca,60dca_session1_lista_speeded_trial074_sword.wav,1,a,peeded,74,sword,758,correct,NA,Apr 17 2023 18:29:30,Agnieszka,1
60dca,60dca_session1_lista_speeded_trial075_helicopter.wav,1,a,peeded,75,helicopter,764,correct,NA,Apr 17 2023 18:29:36,Agnieszka,1
60dca,60dca_session1_lista_speeded_trial076_shield.wav,1,a,peeded,76,shield,660,correct,NA,Apr 17 2023 18:33:36,Agnieszka,1
60dca,60dca_session1_lista_speeded_trial077_beak.wav,1,a,peeded,77,beak,963,correct,NA,Apr 17 2023 18:33:45,Agnieszka,1
60dca,60dca_session1_lista_speeded_trial078_scissors.wav,1,a,peeded,78,scissors,717,correct,NA,Apr 17 2023 18:33:51,Agnieszka,1
60dca,60dca_session1_lista_speeded_trial079_hat.wav,1,a,peeded,79,hat,719,correct,NA,Apr 17 2023 18:33:57,Agnieszka,1
60dca,60dca_session1_lista_speeded_trial080_shower.wav,1,a,peeded,80,shower,788,correct,NA,Apr 17 2023 18:34:06,Agnieszka,1
60dca,60dca_session1_lista_speeded_trial081_bracelet.wav,1,a,peeded,81,bracelet,1054,correct,NA,Apr 17 2023 18:34:12,Agnieszka,1
60dca,60dca_session1_lista_speeded_trial082_judge.wav,1,a,peeded,82,judge,938,correct,NA,Apr 17 2023 18:34:21,Agnieszka,1
60dca,60dca_session1_lista_speeded_trial083_windmill.wav,1,a,peeded,83,windmill,862,correct,NA,Apr 17 2023 18:34:28,Agnieszka,1
60dca,60dca_session1_lista_speeded_trial084_camel.wav,1,a,peeded,84,camel,901,correct,NA,Apr 17 2023 18:34:33,Agnieszka,1
60dca,60dca_session1_lista_speeded_trial085_bike.wav,1,a,peeded,85,bike,835,correct,NA,Apr 17 2023 18:34:38,Agnieszka,1
60dca,60dca_session1_lista_speeded_trial086_flipper.wav,1,a,peeded,86,flipper,717,correct,NA,Apr 17 2023 18:34:52,Agnieszka,1
60dca,60dca_session1_lista_speeded_trial087_sweet.wav,1,a,peeded,87,sweet,781,correct,NA,Apr 17 2023 18:34:58,Agnieszka,1
60dca,60dca_session1_lista_speeded_trial088_bottle.wav,1,a,peeded,88,bottle,1152,correct,NA,Apr 17 2023 18:35:04,Agnieszka,1
60dca,60dca_session1_lista_speeded_trial089_thumb.wav,1,a,peeded,89,thumb,793,correct,NA,Apr 17 2023 18:35:11,Agnieszka,1
60dca,60dca_session1_lista_speeded_trial090_mountain.wav,1,a,peeded,90,mountain,861,correct,NA,Apr 17 2023 18:35:18,Agnieszka,1
60dca,60dca_session1_lista_speeded_trial091_compass.wav,1,a,peeded,91,compass,1097,correct,NA,Apr 17 2023 18:35:23,Agnieszka,1
60dca,60dca_session1_lista_speeded_trial092_ghost.wav,1,a,peeded,92,ghost,901,correct,NA,Apr 17 2023 18:35:29,Agnieszka,1
60dca,60dca_session1_lista_speeded_trial093_drawer.wav,1,a,peeded,93,drawer,938,correct,NA,Apr 17 2023 18:35:37,Agnieszka,1
60dca,60dca_session1_lista_speeded_trial094_apple.wav,1,a,peeded,94,apple,861,correct,NA,Apr 17 2023 18:36:01,Agnieszka,1
60dca,60dca_session1_lista_speeded_trial095_fence.wav,1,a,peeded,95,fence,894,correct,NA,Apr 17 2023 18:36:07,Agnieszka,1
60dca,60dca_session1_lista_speeded_trial096_elbow.wav,1,a,peeded,96,elbow,958,correct,NA,Apr 17 2023 18:36:12,Agnieszka,1
60dca,60dca_session1_lista_speeded_trial097_computer.wav,1,a,peeded,97,computer,802,correct,NA,Apr 17 2023 18:36:26,Agnieszka,1
60dca,60dca_session1_lista_speeded_trial098_teacher.wav,1,a,peeded,98,teacher,1130,correct,slightly cut off,Apr 17 2023 18:36:35,Agnieszka,1
60dca,60dca_session1_lista_speeded_trial099_rose.wav,1,a,peeded,99,rose,952,correct,NA,Apr 17 2023 18:36:41,Agnieszka,1
60dca,60dca_session1_lista_speeded_trial100_arrow.wav,1,a,peeded,100,arrow,953,correct,NA,Apr 17 2023 18:36:47,Agnieszka,1
60dca,60dca_session1_lista_speeded_trial101_train.wav,1,a,peeded,101,train,952,correct,NA,Apr 17 2023 18:36:52,Agnieszka,1
60dca,60dca_session1_lista_speeded_trial102_olive.wav,1,a,peeded,102,olive,889,correct,NA,Apr 17 2023 18:36:58,Agnieszka,1
60dca,60dca_session1_lista_speeded_trial103_flower.wav,1,a,peeded,103,flower,1065,correct,NA,Apr 17 2023 18:37:08,Agnieszka,1
60dca,60dca_session1_lista_speeded_trial104_ruler.wav,1,a,peeded,104,ruler,862,correct,NA,Apr 17 2023 18:37:15,Agnieszka,1
60dca,60dca_session1_lista_speeded_trial105_magnet.wav,1,a,peeded,105,magnet,832,correct,NA,Apr 17 2023 18:44:36,Agnieszka,1
60dca,60dca_session1_lista_speeded_trial106_robot.wav,1,a,peeded,106,robot,781,correct,NA,Apr 17 2023 18:44:42,Agnieszka,1
60dca,60dca_session1_lista_speeded_trial107_fireplace.wav,1,a,peeded,107,fireplace,1014,correct,slightly cut off,Apr 17 2023 18:44:50,Agnieszka,1
60dca,60dca_session1_lista_speeded_trial108_suitcase.wav,1,a,peeded,108,suitcase,803,correct,NA,Apr 17 2023 18:44:55,Agnieszka,1
60dca,60dca_session1_lista_speeded_trial109_onion.wav,1,a,peeded,109,onion,933,correct,NA,Apr 17 2023 18:45:00,Agnieszka,1
60dca,60dca_session1_lista_speeded_trial110_kite.wav,1,a,peeded,110,kite,942,correct,NA,Apr 17 2023 18:45:05,Agnieszka,1
60dca,60dca_session1_lista_speeded_trial111_glove.wav,1,a,peeded,111,glove,1324,correct,NA,Apr 17 2023 18:45:11,Agnieszka,1
60dca,60dca_session1_lista_speeded_trial112_wall.wav,1,a,peeded,112,wall,1014,correct,NA,Apr 17 2023 18:45:16,Agnieszka,1
60dca,60dca_session1_lista_speeded_trial113_bell.wav,1,a,peeded,113,bell,837,correct,NA,Apr 17 2023 18:45:21,Agnieszka,1
60dca,60dca_session1_lista_speeded_trial114_kangaroo.wav,1,a,peeded,114,kangaroo,883,correct,NA,Apr 17 2023 18:45:27,Agnieszka,1
60dca,60dca_session1_lista_speeded_trial115_lung.wav,1,a,peeded,115,lung,972,correct,NA,Apr 17 2023 18:45:32,Agnieszka,1
60dca,60dca_session1_lista_speeded_trial116_tomato.wav,1,a,peeded,116,tomato,1100,correct,slightly cut of,Apr 17 2023 18:45:41,Agnieszka,1
60dca,60dca_session1_lista_speeded_trial117_tree.wav,1,a,peeded,117,tree,918,correct,NA,Apr 17 2023 18:45:48,Agnieszka,1
60dca,60dca_session1_lista_speeded_trial118_lamp.wav,1,a,peeded,118,lamp,877,correct,NA,Apr 17 2023 18:45:53,Agnieszka,1
60dca,60dca_session1_lista_speeded_trial119_avocado.wav,1,a,peeded,119,avocado,1115,correct,last syllable cut off,Apr 17 2023 18:46:04,Agnieszka,1
60dca,60dca_session1_lista_speeded_trial120_key.wav,1,a,peeded,120,key,803,correct,NA,Apr 17 2023 18:46:09,Agnieszka,1
60dca,60dca_session1_lista_speeded_trial121_comb.wav,1,a,peeded,121,comb,815,correct,NA,Apr 17 2023 18:46:16,Agnieszka,1
60dca,60dca_session1_lista_speeded_trial122_zebra.wav,1,a,peeded,122,zebra,721,correct,NA,Apr 17 2023 18:46:22,Agnieszka,1
60dca,60dca_session1_lista_speeded_trial123_fridge.wav,1,a,peeded,123,fridge,815,correct,NA,Apr 17 2023 18:46:29,Agnieszka,1
60dca,60dca_session1_lista_speeded_trial124_tie.wav,1,a,peeded,124,tie,773,correct,NA,Apr 17 2023 18:46:34,Agnieszka,1
60dca,60dca_session1_lista_speeded_trial125_shoe.wav,1,a,peeded,125,shoe,719,correct,NA,Apr 17 2023 18:46:40,Agnieszka,1
60dca,60dca_session1_lista_speeded_trial126_bullet.wav,1,a,peeded,126,bullet,770,correct,NA,Apr 17 2023 18:46:45,Agnieszka,1
60dca,60dca_session1_lista_speeded_trial127_doctor.wav,1,a,peeded,127,doctor,1164,correct,NA,Apr 17 2023 18:46:51,Agnieszka,1
60dca,60dca_session1_lista_speeded_trial128_potato.wav,1,a,peeded,128,potato,899,correct,NA,Apr 17 2023 18:46:59,Agnieszka,1
60dca,60dca_session1_lista_speeded_trial129_curtain.wav,1,a,peeded,129,curtain,945,correct,NA,Apr 17 2023 18:47:04,Agnieszka,1
60dca,60dca_session1_lista_speeded_trial130_tray.wav,1,a,peeded,130,tray,-1,wrong_word,NA,Apr 17 2023 18:47:13,Agnieszka,1
60dca,60dca_session1_lista_speeded_trial131_tractor.wav,1,a,peeded,131,tractor,746,correct,NA,Apr 17 2023 18:47:18,Agnieszka,1
60dca,60dca_session1_lista_speeded_trial132_star.wav,1,a,peeded,132,star,695,correct,NA,Apr 17 2023 18:47:23,Agnieszka,1
60dca,60dca_session1_lista_speeded_trial133_tiger.wav,1,a,peeded,133,tiger,835,correct,NA,Apr 17 2023 18:47:29,Agnieszka,1
60dca,60dca_session1_lista_speeded_trial134_squirrel.wav,1,a,peeded,134,squirrel,771,correct,NA,Apr 17 2023 18:47:34,Agnieszka,1
60dca,60dca_session1_lista_speeded_trial135_dress.wav,1,a,peeded,135,dress,953,correct,NA,Apr 17 2023 18:47:39,Agnieszka,1
60dca,60dca_session1_lista_speeded_trial136_bear.wav,1,a,peeded,136,bear,928,correct,NA,Apr 17 2023 18:47:46,Agnieszka,1
60dca,60dca_session1_lista_speeded_trial137_sausage.wav,1,a,peeded,137,sausage,722,correct,NA,Apr 17 2023 18:47:55,Agnieszka,1
60dca,60dca_session1_lista_speeded_trial138_swan.wav,1,a,peeded,138,swan,731,correct,NA,Apr 17 2023 18:48:00,Agnieszka,1
60dca,60dca_session1_lista_speeded_trial139_skirt.wav,1,a,peeded,139,skirt,837,correct,NA,Apr 17 2023 18:48:05,Agnieszka,1
60dca,60dca_session1_lista_speeded_trial140_book.wav,1,a,peeded,140,book,1009,correct,NA,Apr 17 2023 18:48:13,Agnieszka,1
60dca,60dca_session1_lista_speeded_trial141_battery.wav,1,a,peeded,141,battery,807,correct,NA,Apr 17 2023 18:48:21,Agnieszka,1
60dca,60dca_session1_lista_speeded_trial142_wing.wav,1,a,peeded,142,wing,1191,correct,NA,Apr 17 2023 18:48:27,Agnieszka,1
60dca,60dca_session1_lista_speeded_trial143_fox.wav,1,a,peeded,143,fox,761,correct,NA,Apr 17 2023 18:48:36,Agnieszka,1
60dca,60dca_session1_lista_speeded_trial144_rocket.wav,1,a,peeded,144,rocket,928,correct,NA,Apr 17 2023 18:48:42,Agnieszka,1
60dca,60dca_session1_lista_speeded_trial145_peg.wav,1,a,peeded,145,peg,743,correct,NA,Apr 17 2023 18:48:48,Agnieszka,1
60dca,60dca_session1_lista_speeded_trial146_saw.wav,1,a,peeded,146,saw,596,correct,NA,Apr 17 2023 18:48:53,Agnieszka,1
60dca,60dca_session1_lista_speeded_trial147_mouth.wav,1,a,peeded,147,mouth,668,correct,NA,Apr 17 2023 18:49:00,Agnieszka,1
60dca,60dca_session1_lista_speeded_trial148_rabbit.wav,1,a,peeded,148,rabbit,1070,correct,NA,Apr 17 2023 18:49:08,Agnieszka,1
60dca,60dca_session1_lista_speeded_trial149_lighthouse.wav,1,a,peeded,149,lighthouse,953,correct,NA,Apr 17 2023 18:49:13,Agnieszka,1
60dca,60dca_session1_lista_speeded_trial150_net.wav,1,a,peeded,150,net,753,correct,NA,Apr 17 2023 18:49:19,Agnieszka,1