Participant_ID,File_Name,Session,List,Type_Trial,Trial_Nbr,Target,RT,Response_Trial,Comment,Date_Correction,Assessor_Name,Processed
5a676,5a676_session1_lista_speeded_trial001_robot.wav,1,a,peeded,1,robot,925,correct,NA,May  3 2023 10:08:16,Agnieszka,1
5a676,5a676_session1_lista_speeded_trial002_judge.wav,1,a,peeded,2,judge,1009,correct,NA,May  3 2023 10:08:20,Agnieszka,1
5a676,5a676_session1_lista_speeded_trial003_castle.wav,1,a,peeded,3,castle,753,correct,NA,May  3 2023 10:08:26,Agnieszka,1
5a676,5a676_session1_lista_speeded_trial004_skirt.wav,1,a,peeded,4,skirt,775,correct,NA,May  3 2023 10:08:30,Agnieszka,1
5a676,5a676_session1_lista_speeded_trial005_peg.wav,1,a,peeded,5,peg,674,correct,NA,May  3 2023 10:08:38,Agnieszka,1
5a676,5a676_session1_lista_speeded_trial006_bull.wav,1,a,peeded,6,bull,969,correct,NA,May  3 2023 10:08:49,Agnieszka,1
5a676,5a676_session1_lista_speeded_trial007_hat.wav,1,a,peeded,7,hat,714,correct,NA,May  3 2023 10:08:54,Agnieszka,1
5a676,5a676_session1_lista_speeded_trial008_avocado.wav,1,a,peeded,8,avocado,1303,correct,last syllable cut off,May  3 2023 10:09:20,Agnieszka,1
5a676,5a676_session1_lista_speeded_trial009_kangaroo.wav,1,a,peeded,9,kangaroo,855,correct,NA,May  3 2023 10:09:25,Agnieszka,1
5a676,5a676_session1_lista_speeded_trial010_lighthouse.wav,1,a,peeded,10,lighthouse,952,correct,NA,May  3 2023 10:09:29,Agnieszka,1
5a676,5a676_session1_lista_speeded_trial011_magnet.wav,1,a,peeded,11,magnet,872,correct,NA,May  3 2023 10:09:33,Agnieszka,1
5a676,5a676_session1_lista_speeded_trial012_mountain.wav,1,a,peeded,12,mountain,864,correct,NA,May  3 2023 10:09:38,Agnieszka,1
5a676,5a676_session1_lista_speeded_trial013_arm.wav,1,a,peeded,13,arm,886,correct,NA,May  3 2023 10:09:41,Agnieszka,1
5a676,5a676_session1_lista_speeded_trial014_pipe.wav,1,a,peeded,14,pipe,736,correct,NA,May  3 2023 10:09:51,Agnieszka,1
5a676,5a676_session1_lista_speeded_trial015_net.wav,1,a,peeded,15,net,736,correct,NA,May  3 2023 10:10:03,Agnieszka,1
5a676,5a676_session1_lista_speeded_trial016_bib.wav,1,a,peeded,16,bib,793,correct,NA,May  3 2023 10:10:08,Agnieszka,1
5a676,5a676_session1_lista_speeded_trial017_rhino.wav,1,a,peeded,17,rhino,1000,correct,NA,May  3 2023 10:10:12,Agnieszka,1
5a676,5a676_session1_lista_speeded_trial018_elbow.wav,1,a,peeded,18,elbow,837,correct,NA,May  3 2023 10:10:18,Agnieszka,1
5a676,5a676_session1_lista_speeded_trial019_fairy.wav,1,a,peeded,19,fairy,796,correct,NA,May  3 2023 10:10:22,Agnieszka,1
5a676,5a676_session1_lista_speeded_trial020_tie.wav,1,a,peeded,20,tie,731,correct,NA,May  3 2023 10:10:27,Agnieszka,1
5a676,5a676_session1_lista_speeded_trial021_fence.wav,1,a,peeded,21,fence,793,correct,NA,May  3 2023 10:10:32,Agnieszka,1
5a676,5a676_session1_lista_speeded_trial022_teacher.wav,1,a,peeded,22,teacher,965,correct,NA,May  3 2023 10:10:37,Agnieszka,1
5a676,5a676_session1_lista_speeded_trial023_lighter.wav,1,a,peeded,23,lighter,930,correct,NA,May  3 2023 10:10:41,Agnieszka,1
5a676,5a676_session1_lista_speeded_trial024_fireplace.wav,1,a,peeded,24,fireplace,891,correct,NA,May  3 2023 10:11:03,Agnieszka,1
5a676,5a676_session1_lista_speeded_trial025_bracelet.wav,1,a,peeded,25,bracelet,850,correct,NA,May  3 2023 10:11:08,Agnieszka,1
5a676,5a676_session1_lista_speeded_trial026_scissors.wav,1,a,peeded,26,scissors,709,correct,NA,May  3 2023 10:11:14,Agnieszka,1
5a676,5a676_session1_lista_speeded_trial027_bone.wav,1,a,peeded,27,bone,753,correct,NA,May  3 2023 10:11:18,Agnieszka,1
5a676,5a676_session1_lista_speeded_trial028_tray.wav,1,a,peeded,28,tray,736,correct,NA,May  3 2023 10:11:23,Agnieszka,1
5a676,5a676_session1_lista_speeded_trial029_puppet.wav,1,a,peeded,29,puppet,801,correct,NA,May  3 2023 10:11:28,Agnieszka,1
5a676,5a676_session1_lista_speeded_trial030_island.wav,1,a,peeded,30,island,877,correct,NA,May  3 2023 10:11:33,Agnieszka,1
5a676,5a676_session1_lista_speeded_trial031_limo.wav,1,a,peeded,31,limo,798,correct,NA,May  3 2023 10:11:38,Agnieszka,1
5a676,5a676_session1_lista_speeded_trial032_butter.wav,1,a,peeded,32,butter,947,correct,NA,May  3 2023 10:11:42,Agnieszka,1
5a676,5a676_session1_lista_speeded_trial033_heel.wav,1,a,peeded,33,heel,859,correct,NA,May  3 2023 10:11:46,Agnieszka,1
5a676,5a676_session1_lista_speeded_trial034_mermaid.wav,1,a,peeded,34,mermaid,881,correct,NA,May  3 2023 10:11:50,Agnieszka,1
5a676,5a676_session1_lista_speeded_trial035_apple.wav,1,a,peeded,35,apple,965,correct,NA,May  3 2023 10:11:55,Agnieszka,1
5a676,5a676_session1_lista_speeded_trial036_tiger.wav,1,a,peeded,36,tiger,758,correct,NA,May  3 2023 10:12:00,Agnieszka,1
5a676,5a676_session1_lista_speeded_trial037_star.wav,1,a,peeded,37,star,648,correct,NA,May  3 2023 10:12:04,Agnieszka,1
5a676,5a676_session1_lista_speeded_trial038_crab.wav,1,a,peeded,38,crab,718,correct,NA,May  3 2023 10:12:09,Agnieszka,1
5a676,5a676_session1_lista_speeded_trial039_rocket.wav,1,a,peeded,39,rocket,813,correct,NA,May  3 2023 10:12:13,Agnieszka,1
5a676,5a676_session1_lista_speeded_trial040_helicopter.wav,1,a,peeded,40,helicopter,872,correct,NA,May  3 2023 10:12:18,Agnieszka,1
5a676,5a676_session1_lista_speeded_trial041_arrow.wav,1,a,peeded,41,arrow,912,correct,NA,May  3 2023 10:12:22,Agnieszka,1
5a676,5a676_session1_lista_speeded_trial042_fridge.wav,1,a,peeded,42,fridge,842,correct,NA,May  3 2023 10:12:26,Agnieszka,1
5a676,5a676_session1_lista_speeded_trial043_soap.wav,1,a,peeded,43,soap,810,correct,NA,May  3 2023 10:12:30,Agnieszka,1
5a676,5a676_session1_lista_speeded_trial044_suitcase.wav,1,a,peeded,44,suitcase,810,correct,NA,May  3 2023 10:12:34,Agnieszka,1
5a676,5a676_session1_lista_speeded_trial045_battery.wav,1,a,peeded,45,battery,804,correct,NA,May  3 2023 10:12:39,Agnieszka,1
5a676,5a676_session1_lista_speeded_trial046_zebra.wav,1,a,peeded,46,zebra,771,correct,NA,May  3 2023 10:12:43,Agnieszka,1
5a676,5a676_session1_lista_speeded_trial047_boxer.wav,1,a,peeded,47,boxer,1247,correct,NA,May  3 2023 10:12:48,Agnieszka,1
5a676,5a676_session1_lista_speeded_trial048_fork.wav,1,a,peeded,48,fork,853,correct,NA,May  3 2023 10:12:52,Agnieszka,1
5a676,5a676_session1_lista_speeded_trial049_thumb.wav,1,a,peeded,49,thumb,833,correct,NA,May  3 2023 10:12:56,Agnieszka,1
5a676,5a676_session1_lista_speeded_trial050_map.wav,1,a,peeded,50,map,881,correct,NA,May  3 2023 10:13:02,Agnieszka,1
5a676,5a676_session1_lista_speeded_trial051_wing.wav,1,a,peeded,51,wing,881,correct,NA,May  3 2023 10:13:06,Agnieszka,1
5a676,5a676_session1_lista_speeded_trial052_pear.wav,1,a,peeded,52,pear,916,correct,NA,May  3 2023 10:13:09,Agnieszka,1
5a676,5a676_session1_lista_speeded_trial053_sweet.wav,1,a,peeded,53,sweet,791,correct,NA,May  3 2023 10:13:15,Agnieszka,1
5a676,5a676_session1_lista_speeded_trial054_tomato.wav,1,a,peeded,54,tomato,821,correct,NA,May  3 2023 10:13:19,Agnieszka,1
5a676,5a676_session1_lista_speeded_trial055_tree.wav,1,a,peeded,55,tree,864,correct,NA,May  3 2023 10:13:23,Agnieszka,1
5a676,5a676_session1_lista_speeded_trial056_bus.wav,1,a,peeded,56,bus,872,correct,NA,May  3 2023 10:13:27,Agnieszka,1
5a676,5a676_session1_lista_speeded_trial057_squirrel.wav,1,a,peeded,57,squirrel,714,correct,NA,May  3 2023 10:13:31,Agnieszka,1
5a676,5a676_session1_lista_speeded_trial058_lawnmower.wav,1,a,peeded,58,lawnmower,969,correct,NA,May  3 2023 10:13:36,Agnieszka,1
5a676,5a676_session1_lista_speeded_trial059_circle.wav,1,a,peeded,59,circle,-1,no_resp,NA,May  3 2023 10:13:42,Agnieszka,1
5a676,5a676_session1_lista_speeded_trial060_donkey.wav,1,a,peeded,60,donkey,1062,correct,NA,May  3 2023 10:13:48,Agnieszka,1
5a676,5a676_session1_lista_speeded_trial061_zip.wav,1,a,peeded,61,zip,1383,correct,NA,May  3 2023 10:13:54,Agnieszka,1
5a676,5a676_session1_lista_speeded_trial062_clown.wav,1,a,peeded,62,clown,1075,correct,NA,May  3 2023 10:13:59,Agnieszka,1
5a676,5a676_session1_lista_speeded_trial063_owl.wav,1,a,peeded,63,owl,1018,correct,NA,May  3 2023 10:14:04,Agnieszka,1
5a676,5a676_session1_lista_speeded_trial064_wall.wav,1,a,peeded,64,wall,1207,correct,NA,May  3 2023 10:14:08,Agnieszka,1
5a676,5a676_session1_lista_speeded_trial065_bell.wav,1,a,peeded,65,bell,908,correct,NA,May  3 2023 10:14:12,Agnieszka,1
5a676,5a676_session1_lista_speeded_trial066_wheelbarrow.wav,1,a,peeded,66,wheelbarrow,842,correct,NA,May  3 2023 10:14:16,Agnieszka,1
5a676,5a676_session1_lista_speeded_trial067_bear.wav,1,a,peeded,67,bear,1141,correct,NA,May  3 2023 10:14:21,Agnieszka,1
5a676,5a676_session1_lista_speeded_trial068_nest.wav,1,a,peeded,68,nest,864,correct,NA,May  3 2023 10:14:25,Agnieszka,1
5a676,5a676_session1_lista_speeded_trial069_butterfly.wav,1,a,peeded,69,butterfly,-1,no_resp,NA,May  3 2023 10:14:30,Agnieszka,1
5a676,5a676_session1_lista_speeded_trial070_flipper.wav,1,a,peeded,70,flipper,991,correct,NA,May  3 2023 10:14:40,Agnieszka,1
5a676,5a676_session1_lista_speeded_trial071_computer.wav,1,a,peeded,71,computer,850,correct,NA,May  3 2023 10:14:45,Agnieszka,1
5a676,5a676_session1_lista_speeded_trial072_orange.wav,1,a,peeded,72,orange,983,correct,NA,May  3 2023 10:14:54,Agnieszka,1
5a676,5a676_session1_lista_speeded_trial073_sausage.wav,1,a,peeded,73,sausage,890,correct,NA,May  3 2023 10:14:59,Agnieszka,1
5a676,5a676_session1_lista_speeded_trial074_ruler.wav,1,a,peeded,74,ruler,855,correct,NA,May  3 2023 10:15:04,Agnieszka,1
5a676,5a676_session1_lista_speeded_trial075_dummy.wav,1,a,peeded,75,dummy,810,correct,NA,May  3 2023 10:15:08,Agnieszka,1
5a676,5a676_session1_lista_speeded_trial076_jellyfish.wav,1,a,peeded,76,jellyfish,1194,correct,NA,May  3 2023 10:15:24,Agnieszka,1
5a676,5a676_session1_lista_speeded_trial077_compass.wav,1,a,peeded,77,compass,855,correct,NA,May  3 2023 10:15:27,Agnieszka,1
5a676,5a676_session1_lista_speeded_trial078_tunnel.wav,1,a,peeded,78,tunnel,864,correct,NA,May  3 2023 10:15:31,Agnieszka,1
5a676,5a676_session1_lista_speeded_trial079_basket.wav,1,a,peeded,79,basket,1044,correct,NA,May  3 2023 10:15:35,Agnieszka,1
5a676,5a676_session1_lista_speeded_trial080_gym.wav,1,a,peeded,80,gym,877,correct,NA,May  3 2023 10:15:40,Agnieszka,1
5a676,5a676_session1_lista_speeded_trial081_lung.wav,1,a,peeded,81,lung,899,correct,NA,May  3 2023 10:15:44,Agnieszka,1
5a676,5a676_session1_lista_speeded_trial082_cork.wav,1,a,peeded,82,cork,824,correct,NA,May  3 2023 10:15:49,Agnieszka,1
5a676,5a676_session1_lista_speeded_trial083_triangle.wav,1,a,peeded,83,triangle,1005,correct,NA,May  3 2023 10:15:53,Agnieszka,1
5a676,5a676_session1_lista_speeded_trial084_glove.wav,1,a,peeded,84,glove,938,correct,NA,May  3 2023 10:15:58,Agnieszka,1
5a676,5a676_session1_lista_speeded_trial085_sun.wav,1,a,peeded,85,sun,899,correct,NA,May  3 2023 10:16:02,Agnieszka,1
5a676,5a676_session1_lista_speeded_trial086_mouth.wav,1,a,peeded,86,mouth,877,correct,NA,May  3 2023 10:16:06,Agnieszka,1
5a676,5a676_session1_lista_speeded_trial087_pineapple.wav,1,a,peeded,87,pineapple,952,correct,NA,May  3 2023 10:16:12,Agnieszka,1
5a676,5a676_session1_lista_speeded_trial088_kite.wav,1,a,peeded,88,kite,793,correct,NA,May  3 2023 10:16:17,Agnieszka,1
5a676,5a676_session1_lista_speeded_trial089_whale.wav,1,a,peeded,89,whale,740,correct,NA,May  3 2023 10:16:22,Agnieszka,1
5a676,5a676_session1_lista_speeded_trial090_coat.wav,1,a,peeded,90,coat,820,correct,NA,May  3 2023 10:16:26,Agnieszka,1
5a676,5a676_session1_lista_speeded_trial091_drum.wav,1,a,peeded,91,drum,1216,correct,NA,May  3 2023 10:16:35,Agnieszka,1
5a676,5a676_session1_lista_speeded_trial092_flag.wav,1,a,peeded,92,flag,808,correct,NA,May  3 2023 10:16:39,Agnieszka,1
5a676,5a676_session1_lista_speeded_trial093_fox.wav,1,a,peeded,93,fox,859,correct,NA,May  3 2023 10:16:44,Agnieszka,1
5a676,5a676_session1_lista_speeded_trial094_doctor.wav,1,a,peeded,94,doctor,908,correct,NA,May  3 2023 10:16:49,Agnieszka,1
5a676,5a676_session1_lista_speeded_trial095_potato.wav,1,a,peeded,95,potato,762,correct,NA,May  3 2023 10:16:53,Agnieszka,1
5a676,5a676_session1_lista_speeded_trial096_camel.wav,1,a,peeded,96,camel,833,correct,NA,May  3 2023 10:16:57,Agnieszka,1
5a676,5a676_session1_lista_speeded_trial097_pencil.wav,1,a,peeded,97,pencil,674,correct,NA,May  3 2023 10:17:02,Agnieszka,1
5a676,5a676_session1_lista_speeded_trial098_bike.wav,1,a,peeded,98,bike,784,correct,NA,May  3 2023 10:17:06,Agnieszka,1
5a676,5a676_session1_lista_speeded_trial099_shield.wav,1,a,peeded,99,shield,1137,correct,NA,May  3 2023 10:17:10,Agnieszka,1
5a676,5a676_session1_lista_speeded_trial100_caterpillar.wav,1,a,peeded,100,caterpillar,855,correct,NA,May  3 2023 10:17:14,Agnieszka,1
5a676,5a676_session1_lista_speeded_trial101_medal.wav,1,a,peeded,101,medal,1273,correct,NA,May  3 2023 10:17:18,Agnieszka,1
5a676,5a676_session1_lista_speeded_trial102_tractor.wav,1,a,peeded,102,tractor,780,correct,NA,May  3 2023 10:17:23,Agnieszka,1
5a676,5a676_session1_lista_speeded_trial103_wave.wav,1,a,peeded,103,wave,947,correct,NA,May  3 2023 10:17:27,Agnieszka,1
5a676,5a676_session1_lista_speeded_trial104_onion.wav,1,a,peeded,104,onion,837,correct,NA,May  3 2023 10:17:31,Agnieszka,1
5a676,5a676_session1_lista_speeded_trial105_pocket.wav,1,a,peeded,105,pocket,969,correct,NA,May  3 2023 10:17:35,Agnieszka,1
5a676,5a676_session1_lista_speeded_trial106_tap.wav,1,a,peeded,106,tap,864,correct,NA,May  3 2023 10:17:39,Agnieszka,1
5a676,5a676_session1_lista_speeded_trial107_shower.wav,1,a,peeded,107,shower,846,correct,NA,May  3 2023 10:17:43,Agnieszka,1
5a676,5a676_session1_lista_speeded_trial108_knife.wav,1,a,peeded,108,knife,784,correct,NA,May  3 2023 10:17:47,Agnieszka,1
5a676,5a676_session1_lista_speeded_trial109_flower.wav,1,a,peeded,109,flower,838,correct,NA,May  3 2023 10:17:51,Agnieszka,1
5a676,5a676_session1_lista_speeded_trial110_suit.wav,1,a,peeded,110,suit,899,correct,NA,May  3 2023 10:17:55,Agnieszka,1
5a676,5a676_session1_lista_speeded_trial111_snake.wav,1,a,peeded,111,snake,780,correct,NA,May  3 2023 10:17:59,Agnieszka,1
5a676,5a676_session1_lista_speeded_trial112_kiwi.wav,1,a,peeded,112,kiwi,787,correct,NA,May  3 2023 10:18:03,Agnieszka,1
5a676,5a676_session1_lista_speeded_trial113_carrot.wav,1,a,peeded,113,carrot,753,correct,NA,May  3 2023 10:18:07,Agnieszka,1
5a676,5a676_session1_lista_speeded_trial114_ghost.wav,1,a,peeded,114,ghost,841,correct,NA,May  3 2023 10:18:26,Agnieszka,1
5a676,5a676_session1_lista_speeded_trial115_shoe.wav,1,a,peeded,115,shoe,983,correct,NA,May  3 2023 10:18:30,Agnieszka,1
5a676,5a676_session1_lista_speeded_trial116_dress.wav,1,a,peeded,116,dress,828,correct,NA,May  3 2023 10:18:34,Agnieszka,1
5a676,5a676_session1_lista_speeded_trial117_key.wav,1,a,peeded,117,key,791,correct,NA,May  3 2023 10:18:39,Agnieszka,1
5a676,5a676_session1_lista_speeded_trial118_queen.wav,1,a,peeded,118,queen,841,correct,NA,May  3 2023 10:18:43,Agnieszka,1
5a676,5a676_session1_lista_speeded_trial119_olive.wav,1,a,peeded,119,olive,1140,correct,NA,May  3 2023 10:18:47,Agnieszka,1
5a676,5a676_session1_lista_speeded_trial120_kitchen.wav,1,a,peeded,120,kitchen,846,correct,NA,May  3 2023 10:18:51,Agnieszka,1
5a676,5a676_session1_lista_speeded_trial121_tattoo.wav,1,a,peeded,121,tattoo,912,correct,NA,May  3 2023 10:18:55,Agnieszka,1
5a676,5a676_session1_lista_speeded_trial122_saw.wav,1,a,peeded,122,saw,1009,correct,NA,May  3 2023 10:18:59,Agnieszka,1
5a676,5a676_session1_lista_speeded_trial123_rabbit.wav,1,a,peeded,123,rabbit,864,correct,NA,May  3 2023 10:19:02,Agnieszka,1
5a676,5a676_session1_lista_speeded_trial124_tambourine.wav,1,a,peeded,124,tambourine,987,correct,NA,May  3 2023 10:19:06,Agnieszka,1
5a676,5a676_session1_lista_speeded_trial125_doughnut.wav,1,a,peeded,125,doughnut,874,correct,NA,May  3 2023 10:19:10,Agnieszka,1
5a676,5a676_session1_lista_speeded_trial126_bottle.wav,1,a,peeded,126,bottle,776,correct,NA,May  3 2023 10:19:17,Agnieszka,1
5a676,5a676_session1_lista_speeded_trial127_dice.wav,1,a,peeded,127,dice,925,correct,NA,May  3 2023 10:19:21,Agnieszka,1
5a676,5a676_session1_lista_speeded_trial128_sword.wav,1,a,peeded,128,sword,853,correct,NA,May  3 2023 10:19:25,Agnieszka,1
5a676,5a676_session1_lista_speeded_trial129_bullet.wav,1,a,peeded,129,bullet,1218,correct,NA,May  3 2023 10:19:29,Agnieszka,1
5a676,5a676_session1_lista_speeded_trial130_swan.wav,1,a,peeded,130,swan,818,correct,NA,May  3 2023 10:19:33,Agnieszka,1
5a676,5a676_session1_lista_speeded_trial131_tongue.wav,1,a,peeded,131,tongue,959,correct,NA,May  3 2023 10:19:38,Agnieszka,1
5a676,5a676_session1_lista_speeded_trial132_cherry.wav,1,a,peeded,132,cherry,727,correct,NA,May  3 2023 10:19:43,Agnieszka,1
5a676,5a676_session1_lista_speeded_trial133_ear.wav,1,a,peeded,133,ear,783,correct,NA,May  3 2023 10:19:49,Agnieszka,1
5a676,5a676_session1_lista_speeded_trial134_goat.wav,1,a,peeded,134,goat,881,correct,NA,May  3 2023 10:19:57,Agnieszka,1
5a676,5a676_session1_lista_speeded_trial135_curtain.wav,1,a,peeded,135,curtain,788,correct,NA,May  3 2023 10:20:02,Agnieszka,1
5a676,5a676_session1_lista_speeded_trial136_plumber.wav,1,a,peeded,136,plumber,882,correct,NA,May  3 2023 10:20:06,Agnieszka,1
5a676,5a676_session1_lista_speeded_trial137_pepper.wav,1,a,peeded,137,pepper,868,correct,NA,May  3 2023 10:20:10,Agnieszka,1
5a676,5a676_session1_lista_speeded_trial138_bench.wav,1,a,peeded,138,bench,900,correct,NA,May  3 2023 10:20:14,Agnieszka,1
5a676,5a676_session1_lista_speeded_trial139_comb.wav,1,a,peeded,139,comb,1051,correct,NA,May  3 2023 10:20:19,Agnieszka,1
5a676,5a676_session1_lista_speeded_trial140_koala.wav,1,a,peeded,140,koala,853,correct,NA,May  3 2023 10:20:23,Agnieszka,1
5a676,5a676_session1_lista_speeded_trial141_beak.wav,1,a,peeded,141,beak,963,correct,NA,May  3 2023 10:20:27,Agnieszka,1
5a676,5a676_session1_lista_speeded_trial142_hippo.wav,1,a,peeded,142,hippo,928,correct,NA,May  3 2023 10:20:32,Agnieszka,1
5a676,5a676_session1_lista_speeded_trial143_drawer.wav,1,a,peeded,143,drawer,834,correct,NA,May  3 2023 10:20:36,Agnieszka,1
5a676,5a676_session1_lista_speeded_trial144_submarine.wav,1,a,peeded,144,submarine,856,correct,NA,May  3 2023 10:20:41,Agnieszka,1
5a676,5a676_session1_lista_speeded_trial145_lamp.wav,1,a,peeded,145,lamp,861,correct,NA,May  3 2023 10:20:45,Agnieszka,1
5a676,5a676_session1_lista_speeded_trial146_candle.wav,1,a,peeded,146,candle,808,correct,NA,May  3 2023 10:20:49,Agnieszka,1
5a676,5a676_session1_lista_speeded_trial147_book.wav,1,a,peeded,147,book,819,correct,NA,May  3 2023 10:20:53,Agnieszka,1
5a676,5a676_session1_lista_speeded_trial148_rose.wav,1,a,peeded,148,rose,743,correct,NA,May  3 2023 10:20:57,Agnieszka,1
5a676,5a676_session1_lista_speeded_trial149_windmill.wav,1,a,peeded,149,windmill,867,correct,NA,May  3 2023 10:21:01,Agnieszka,1
5a676,5a676_session1_lista_speeded_trial150_train.wav,1,a,peeded,150,train,846,correct,NA,May  3 2023 10:21:05,Agnieszka,1
