Participant_ID,File_Name,Session,List,Type_Trial,Trial_Nbr,Target,RT,Response_Trial,Comment,Date_Correction,Assessor_Name,Processed
5fe39,5fe39_session1_lista_speeded_trial001_thumb.wav,1,a,peeded,1,thumb,749,correct,NA,Apr 25 2023 13:40:52,Agnieszka,1
5fe39,5fe39_session1_lista_speeded_trial002_judge.wav,1,a,peeded,2,judge,662,correct,NA,Apr 25 2023 13:41:02,Agnieszka,1
5fe39,5fe39_session1_lista_speeded_trial003_bullet.wav,1,a,peeded,3,bullet,-1,no_resp,NA,Apr 25 2023 13:41:08,Agnieszka,1
5fe39,5fe39_session1_lista_speeded_trial004_sword.wav,1,a,peeded,4,sword,614,correct,NA,Apr 25 2023 13:41:21,Agnieszka,1
5fe39,5fe39_session1_lista_speeded_trial005_rhino.wav,1,a,peeded,5,rhino,691,correct,NA,Apr 25 2023 13:41:34,Agnieszka,1
5fe39,5fe39_session1_lista_speeded_trial006_medal.wav,1,a,peeded,6,medal,650,correct,NA,Apr 25 2023 13:41:49,Agnieszka,1
5fe39,5fe39_session1_lista_speeded_trial007_battery.wav,1,a,peeded,7,battery,979,correct,NA,Apr 25 2023 13:42:01,Agnieszka,1
5fe39,5fe39_session1_lista_speeded_trial008_jellyfish.wav,1,a,peeded,8,jellyfish,731,correct,NA,Apr 25 2023 13:42:13,Agnieszka,1
5fe39,5fe39_session1_lista_speeded_trial009_apple.wav,1,a,peeded,9,apple,662,correct,NA,Apr 25 2023 13:42:24,Agnieszka,1
5fe39,5fe39_session1_lista_speeded_trial010_helicopter.wav,1,a,peeded,10,helicopter,641,correct,NA,Apr 25 2023 13:42:33,Agnieszka,1
5fe39,5fe39_session1_lista_speeded_trial011_swan.wav,1,a,peeded,11,swan,613,correct,NA,Apr 25 2023 13:42:40,Agnieszka,1
5fe39,5fe39_session1_lista_speeded_trial012_squirrel.wav,1,a,peeded,12,squirrel,815,correct,NA,Apr 25 2023 13:42:50,Agnieszka,1
5fe39,5fe39_session1_lista_speeded_trial013_castle.wav,1,a,peeded,13,castle,692,correct,NA,Apr 25 2023 13:43:02,Agnieszka,1
5fe39,5fe39_session1_lista_speeded_trial014_bone.wav,1,a,peeded,14,bone,636,correct,NA,Apr 25 2023 13:43:08,Agnieszka,1
5fe39,5fe39_session1_lista_speeded_trial015_rabbit.wav,1,a,peeded,15,rabbit,685,correct,NA,Apr 25 2023 13:43:38,Agnieszka,1
5fe39,5fe39_session1_lista_speeded_trial016_flower.wav,1,a,peeded,16,flower,623,correct,NA,Apr 25 2023 13:43:47,Agnieszka,1
5fe39,5fe39_session1_lista_speeded_trial017_bracelet.wav,1,a,peeded,17,bracelet,734,correct,NA,Apr 25 2023 13:43:54,Agnieszka,1
5fe39,5fe39_session1_lista_speeded_trial018_kitchen.wav,1,a,peeded,18,kitchen,775,correct,NA,Apr 25 2023 13:43:59,Agnieszka,1
5fe39,5fe39_session1_lista_speeded_trial019_fork.wav,1,a,peeded,19,fork,599,correct,NA,Apr 25 2023 13:44:10,Agnieszka,1
5fe39,5fe39_session1_lista_speeded_trial020_kangaroo.wav,1,a,peeded,20,kangaroo,652,correct,NA,Apr 25 2023 13:44:16,Agnieszka,1
5fe39,5fe39_session1_lista_speeded_trial021_shoe.wav,1,a,peeded,21,shoe,596,correct,NA,Apr 25 2023 13:44:26,Agnieszka,1
5fe39,5fe39_session1_lista_speeded_trial022_tap.wav,1,a,peeded,22,tap,717,correct,NA,Apr 25 2023 13:44:36,Agnieszka,1
5fe39,5fe39_session1_lista_speeded_trial023_kiwi.wav,1,a,peeded,23,kiwi,722,uncertain,"something happened to the sound, sounds a bit muffled?",Apr 25 2023 13:45:06,Agnieszka,1
5fe39,5fe39_session1_lista_speeded_trial024_potato.wav,1,a,peeded,24,potato,753,correct,NA,Apr 25 2023 13:45:14,Agnieszka,1
5fe39,5fe39_session1_lista_speeded_trial025_train.wav,1,a,peeded,25,train,837,correct,NA,Apr 25 2023 13:45:23,Agnieszka,1
5fe39,5fe39_session1_lista_speeded_trial026_wheelbarrow.wav,1,a,peeded,26,wheelbarrow,1169,correct,slightly cut off,Apr 25 2023 13:45:57,Agnieszka,1
5fe39,5fe39_session1_lista_speeded_trial027_drawer.wav,1,a,peeded,27,drawer,953,correct,NA,Apr 25 2023 13:46:05,Agnieszka,1
5fe39,5fe39_session1_lista_speeded_trial028_bear.wav,1,a,peeded,28,bear,820,correct,NA,Apr 25 2023 13:46:11,Agnieszka,1
5fe39,5fe39_session1_lista_speeded_trial029_candle.wav,1,a,peeded,29,candle,935,correct,NA,Apr 25 2023 13:46:20,Agnieszka,1
5fe39,5fe39_session1_lista_speeded_trial030_pineapple.wav,1,a,peeded,30,pineapple,672,correct,NA,Apr 25 2023 13:46:27,Agnieszka,1
5fe39,5fe39_session1_lista_speeded_trial031_knife.wav,1,a,peeded,31,knife,631,correct,NA,Apr 25 2023 13:46:34,Agnieszka,1
5fe39,5fe39_session1_lista_speeded_trial032_carrot.wav,1,a,peeded,32,carrot,606,correct,NA,Apr 25 2023 13:46:48,Agnieszka,1
5fe39,5fe39_session1_lista_speeded_trial033_map.wav,1,a,peeded,33,map,672,correct,NA,Apr 25 2023 13:46:54,Agnieszka,1
5fe39,5fe39_session1_lista_speeded_trial034_bus.wav,1,a,peeded,34,bus,883,correct,NA,Apr 25 2023 13:47:04,Agnieszka,1
5fe39,5fe39_session1_lista_speeded_trial035_gym.wav,1,a,peeded,35,gym,803,correct,NA,Apr 25 2023 13:47:12,Agnieszka,1
5fe39,5fe39_session1_lista_speeded_trial036_bench.wav,1,a,peeded,36,bench,694,correct,NA,Apr 25 2023 13:47:20,Agnieszka,1
5fe39,5fe39_session1_lista_speeded_trial037_suit.wav,1,a,peeded,37,suit,702,correct,NA,Apr 25 2023 13:47:25,Agnieszka,1
5fe39,5fe39_session1_lista_speeded_trial038_shield.wav,1,a,peeded,38,shield,-1,no_resp,NA,Apr 25 2023 13:47:32,Agnieszka,1
5fe39,5fe39_session1_lista_speeded_trial039_crab.wav,1,a,peeded,39,crab,-1,uncertain,starts with the previous word,Apr 25 2023 13:47:53,Agnieszka,1
5fe39,5fe39_session1_lista_speeded_trial040_bib.wav,1,a,peeded,40,bib,722,correct,NA,Apr 25 2023 13:48:05,Agnieszka,1
5fe39,5fe39_session1_lista_speeded_trial041_rose.wav,1,a,peeded,41,rose,619,correct,NA,Apr 25 2023 13:48:37,Agnieszka,1
5fe39,5fe39_session1_lista_speeded_trial042_soap.wav,1,a,peeded,42,soap,877,correct,NA,Apr 25 2023 13:57:44,Agnieszka,1
5fe39,5fe39_session1_lista_speeded_trial043_pocket.wav,1,a,peeded,43,pocket,1029,correct,NA,Apr 25 2023 13:57:51,Agnieszka,1
5fe39,5fe39_session1_lista_speeded_trial044_ear.wav,1,a,peeded,44,ear,731,correct,NA,Apr 25 2023 13:58:00,Agnieszka,1
5fe39,5fe39_session1_lista_speeded_trial045_robot.wav,1,a,peeded,45,robot,680,correct,NA,Apr 25 2023 13:58:23,Agnieszka,1
5fe39,5fe39_session1_lista_speeded_trial046_owl.wav,1,a,peeded,46,owl,763,correct,NA,Apr 25 2023 13:58:32,Agnieszka,1
5fe39,5fe39_session1_lista_speeded_trial047_lighter.wav,1,a,peeded,47,lighter,741,correct,NA,Apr 25 2023 13:58:46,Agnieszka,1
5fe39,5fe39_session1_lista_speeded_trial048_fridge.wav,1,a,peeded,48,fridge,658,correct,NA,Apr 25 2023 13:58:57,Agnieszka,1
5fe39,5fe39_session1_lista_speeded_trial049_wave.wav,1,a,peeded,49,wave,1412,correct,cut off in the end,Apr 25 2023 13:59:06,Agnieszka,1
5fe39,5fe39_session1_lista_speeded_trial050_island.wav,1,a,peeded,50,island,1031,correct,NA,Apr 25 2023 13:59:18,Agnieszka,1
5fe39,5fe39_session1_lista_speeded_trial051_star.wav,1,a,peeded,51,star,623,correct,NA,Apr 25 2023 13:59:28,Agnieszka,1
5fe39,5fe39_session1_lista_speeded_trial052_ruler.wav,1,a,peeded,52,ruler,685,correct,NA,Apr 25 2023 13:59:39,Agnieszka,1
5fe39,5fe39_session1_lista_speeded_trial053_rocket.wav,1,a,peeded,53,rocket,711,correct,NA,Apr 25 2023 13:59:47,Agnieszka,1
5fe39,5fe39_session1_lista_speeded_trial054_arrow.wav,1,a,peeded,54,arrow,844,correct,NA,Apr 25 2023 14:00:14,Agnieszka,1
5fe39,5fe39_session1_lista_speeded_trial055_sweet.wav,1,a,peeded,55,sweet,736,correct,NA,Apr 25 2023 14:00:22,Agnieszka,1
5fe39,5fe39_session1_lista_speeded_trial056_avocado.wav,1,a,peeded,56,avocado,-1,wrong_word,ki... avocado,Apr 25 2023 14:00:46,Agnieszka,1
5fe39,5fe39_session1_lista_speeded_trial057_tunnel.wav,1,a,peeded,57,tunnel,1444,correct,ending cut off,Apr 25 2023 14:00:58,Agnieszka,1
5fe39,5fe39_session1_lista_speeded_trial058_plumber.wav,1,a,peeded,58,plumber,921,correct,NA,Apr 25 2023 14:01:08,Agnieszka,1
5fe39,5fe39_session1_lista_speeded_trial059_skirt.wav,1,a,peeded,59,skirt,798,correct,NA,Apr 25 2023 14:01:16,Agnieszka,1
5fe39,5fe39_session1_lista_speeded_trial060_saw.wav,1,a,peeded,60,saw,705,correct,NA,Apr 25 2023 14:01:21,Agnieszka,1
5fe39,5fe39_session1_lista_speeded_trial061_heel.wav,1,a,peeded,61,heel,619,correct,NA,Apr 25 2023 14:01:28,Agnieszka,1
5fe39,5fe39_session1_lista_speeded_trial062_hippo.wav,1,a,peeded,62,hippo,-1,disfluency,NA,Apr 25 2023 14:01:34,Agnieszka,1
5fe39,5fe39_session1_lista_speeded_trial063_pear.wav,1,a,peeded,63,pear,923,correct,NA,Apr 25 2023 14:01:46,Agnieszka,1
5fe39,5fe39_session1_lista_speeded_trial064_tiger.wav,1,a,peeded,64,tiger,808,correct,NA,Apr 25 2023 14:01:58,Agnieszka,1
5fe39,5fe39_session1_lista_speeded_trial065_mermaid.wav,1,a,peeded,65,mermaid,818,correct,NA,Apr 25 2023 14:02:06,Agnieszka,1
5fe39,5fe39_session1_lista_speeded_trial066_queen.wav,1,a,peeded,66,queen,-1,wrong_word,NA,Apr 25 2023 14:02:10,Agnieszka,1
5fe39,5fe39_session1_lista_speeded_trial067_koala.wav,1,a,peeded,67,koala,979,correct,NA,Apr 25 2023 14:02:18,Agnieszka,1
5fe39,5fe39_session1_lista_speeded_trial068_hat.wav,1,a,peeded,68,hat,690,correct,NA,Apr 25 2023 14:02:24,Agnieszka,1
5fe39,5fe39_session1_lista_speeded_trial069_scissors.wav,1,a,peeded,69,scissors,599,uncertain,scissor,Apr 25 2023 14:02:57,Agnieszka,1
5fe39,5fe39_session1_lista_speeded_trial070_tambourine.wav,1,a,peeded,70,tambourine,726,correct,NA,Apr 25 2023 14:03:08,Agnieszka,1
5fe39,5fe39_session1_lista_speeded_trial071_orange.wav,1,a,peeded,71,orange,766,correct,NA,Apr 25 2023 14:14:30,Agnieszka,1
5fe39,5fe39_session1_lista_speeded_trial072_sausage.wav,1,a,peeded,72,sausage,753,correct,NA,Apr 25 2023 14:14:35,Agnieszka,1
5fe39,5fe39_session1_lista_speeded_trial073_tray.wav,1,a,peeded,73,tray,737,correct,NA,Apr 25 2023 14:14:46,Agnieszka,1
5fe39,5fe39_session1_lista_speeded_trial074_lung.wav,1,a,peeded,74,lung,-1,no_resp,NA,Apr 25 2023 14:14:51,Agnieszka,1
5fe39,5fe39_session1_lista_speeded_trial075_net.wav,1,a,peeded,75,net,816,correct,NA,Apr 25 2023 14:15:01,Agnieszka,1
5fe39,5fe39_session1_lista_speeded_trial076_pepper.wav,1,a,peeded,76,pepper,751,correct,NA,Apr 25 2023 14:15:10,Agnieszka,1
5fe39,5fe39_session1_lista_speeded_trial077_peg.wav,1,a,peeded,77,peg,795,correct,NA,Apr 25 2023 14:15:28,Agnieszka,1
5fe39,5fe39_session1_lista_speeded_trial078_goat.wav,1,a,peeded,78,goat,1392,correct,slightly cut off,Apr 25 2023 14:15:39,Agnieszka,1
5fe39,5fe39_session1_lista_speeded_trial079_flag.wav,1,a,peeded,79,flag,605,correct,NA,Apr 25 2023 14:15:51,Agnieszka,1
5fe39,5fe39_session1_lista_speeded_trial080_donkey.wav,1,a,peeded,80,donkey,1116,correct,NA,Apr 25 2023 14:16:15,Agnieszka,1
5fe39,5fe39_session1_lista_speeded_trial081_zebra.wav,1,a,peeded,81,zebra,746,correct,NA,Apr 25 2023 14:16:20,Agnieszka,1
5fe39,5fe39_session1_lista_speeded_trial082_zip.wav,1,a,peeded,82,zip,746,correct,NA,Apr 25 2023 14:16:35,Agnieszka,1
5fe39,5fe39_session1_lista_speeded_trial083_suitcase.wav,1,a,peeded,83,suitcase,777,correct,NA,Apr 25 2023 14:16:53,Agnieszka,1
5fe39,5fe39_session1_lista_speeded_trial084_shower.wav,1,a,peeded,84,shower,887,correct,NA,Apr 25 2023 14:16:59,Agnieszka,1
5fe39,5fe39_session1_lista_speeded_trial085_lawnmower.wav,1,a,peeded,85,lawnmower,908,correct,NA,Apr 25 2023 14:17:05,Agnieszka,1
5fe39,5fe39_session1_lista_speeded_trial086_elbow.wav,1,a,peeded,86,elbow,-1,no_resp,NA,Apr 25 2023 14:17:10,Agnieszka,1
5fe39,5fe39_session1_lista_speeded_trial087_coat.wav,1,a,peeded,87,coat,748,correct,NA,Apr 25 2023 14:17:20,Agnieszka,1
5fe39,5fe39_session1_lista_speeded_trial088_windmill.wav,1,a,peeded,88,windmill,787,correct,NA,Apr 25 2023 14:17:29,Agnieszka,1
5fe39,5fe39_session1_lista_speeded_trial089_whale.wav,1,a,peeded,89,whale,1141,correct,NA,Apr 25 2023 14:17:36,Agnieszka,1
5fe39,5fe39_session1_lista_speeded_trial090_boxer.wav,1,a,peeded,90,boxer,820,correct,NA,Apr 25 2023 14:17:47,Agnieszka,1
5fe39,5fe39_session1_lista_speeded_trial091_tattoo.wav,1,a,peeded,91,tattoo,1071,correct,NA,Apr 25 2023 14:17:57,Agnieszka,1
5fe39,5fe39_session1_lista_speeded_trial092_tree.wav,1,a,peeded,92,tree,1202,correct,NA,Apr 25 2023 14:18:05,Agnieszka,1
5fe39,5fe39_session1_lista_speeded_trial093_lamp.wav,1,a,peeded,93,lamp,870,correct,NA,Apr 25 2023 14:18:20,Agnieszka,1
5fe39,5fe39_session1_lista_speeded_trial094_onion.wav,1,a,peeded,94,onion,876,correct,NA,Apr 25 2023 14:18:27,Agnieszka,1
5fe39,5fe39_session1_lista_speeded_trial095_computer.wav,1,a,peeded,95,computer,928,correct,NA,Apr 25 2023 14:18:46,Agnieszka,1
5fe39,5fe39_session1_lista_speeded_trial096_fox.wav,1,a,peeded,96,fox,856,correct,NA,Apr 25 2023 14:18:54,Agnieszka,1
5fe39,5fe39_session1_lista_speeded_trial097_magnet.wav,1,a,peeded,97,magnet,739,correct,NA,Apr 25 2023 14:19:03,Agnieszka,1
5fe39,5fe39_session1_lista_speeded_trial098_flipper.wav,1,a,peeded,98,flipper,1172,correct,NA,Apr 25 2023 14:19:17,Agnieszka,1
5fe39,5fe39_session1_lista_speeded_trial099_clown.wav,1,a,peeded,99,clown,852,correct,NA,Apr 25 2023 14:19:24,Agnieszka,1
5fe39,5fe39_session1_lista_speeded_trial100_tomato.wav,1,a,peeded,100,tomato,1031,correct,NA,Apr 25 2023 14:19:31,Agnieszka,1
5fe39,5fe39_session1_lista_speeded_trial101_bell.wav,1,a,peeded,101,bell,692,correct,NA,Apr 25 2023 14:19:38,Agnieszka,1
5fe39,5fe39_session1_lista_speeded_trial102_camel.wav,1,a,peeded,102,camel,796,correct,NA,Apr 25 2023 14:19:48,Agnieszka,1
5fe39,5fe39_session1_lista_speeded_trial103_glove.wav,1,a,peeded,103,glove,701,correct,NA,Apr 25 2023 14:20:36,Agnieszka,1
5fe39,5fe39_session1_lista_speeded_trial104_arm.wav,1,a,peeded,104,arm,760,correct,NA,Apr 25 2023 14:20:45,Agnieszka,1
5fe39,5fe39_session1_lista_speeded_trial105_tie.wav,1,a,peeded,105,tie,695,correct,NA,Apr 25 2023 14:20:57,Agnieszka,1
5fe39,5fe39_session1_lista_speeded_trial106_pipe.wav,1,a,peeded,106,pipe,890,correct,NA,Apr 25 2023 14:21:06,Agnieszka,1
5fe39,5fe39_session1_lista_speeded_trial107_tongue.wav,1,a,peeded,107,tongue,-1,wrong_word,NA,Apr 25 2023 14:21:13,Agnieszka,1
5fe39,5fe39_session1_lista_speeded_trial108_triangle.wav,1,a,peeded,108,triangle,602,correct,NA,Apr 25 2023 14:21:29,Agnieszka,1
5fe39,5fe39_session1_lista_speeded_trial109_bottle.wav,1,a,peeded,109,bottle,762,correct,NA,Apr 25 2023 14:21:38,Agnieszka,1
5fe39,5fe39_session1_lista_speeded_trial110_cherry.wav,1,a,peeded,110,cherry,-1,disfluency,NA,Apr 25 2023 14:21:46,Agnieszka,1
5fe39,5fe39_session1_lista_speeded_trial111_olive.wav,1,a,peeded,111,olive,1026,correct,NA,Apr 25 2023 14:21:52,Agnieszka,1
5fe39,5fe39_session1_lista_speeded_trial112_butter.wav,1,a,peeded,112,butter,961,correct,NA,Apr 25 2023 14:21:58,Agnieszka,1
5fe39,5fe39_session1_lista_speeded_trial113_limo.wav,1,a,peeded,113,limo,-1,wrong_word,NA,Apr 25 2023 14:22:04,Agnieszka,1
5fe39,5fe39_session1_lista_speeded_trial114_teacher.wav,1,a,peeded,114,teacher,818,correct,NA,Apr 25 2023 14:22:12,Agnieszka,1
5fe39,5fe39_session1_lista_speeded_trial115_mountain.wav,1,a,peeded,115,mountain,768,correct,NA,Apr 25 2023 14:22:22,Agnieszka,1
5fe39,5fe39_session1_lista_speeded_trial116_fireplace.wav,1,a,peeded,116,fireplace,840,correct,NA,Apr 25 2023 14:22:32,Agnieszka,1
5fe39,5fe39_session1_lista_speeded_trial117_curtain.wav,1,a,peeded,117,curtain,744,correct,NA,Apr 25 2023 14:22:40,Agnieszka,1
5fe39,5fe39_session1_lista_speeded_trial118_submarine.wav,1,a,peeded,118,submarine,-1,no_resp,NA,Apr 25 2023 14:22:44,Agnieszka,1
5fe39,5fe39_session1_lista_speeded_trial119_comb.wav,1,a,peeded,119,comb,-1,uncertain,starts with the previous word,Apr 25 2023 14:22:59,Agnieszka,1
5fe39,5fe39_session1_lista_speeded_trial120_dice.wav,1,a,peeded,120,dice,704,correct,NA,Apr 25 2023 14:23:13,Agnieszka,1
5fe39,5fe39_session1_lista_speeded_trial121_fairy.wav,1,a,peeded,121,fairy,730,correct,NA,Apr 25 2023 14:23:30,Agnieszka,1
5fe39,5fe39_session1_lista_speeded_trial122_basket.wav,1,a,peeded,122,basket,630,correct,NA,Apr 25 2023 14:23:38,Agnieszka,1
5fe39,5fe39_session1_lista_speeded_trial123_tractor.wav,1,a,peeded,123,tractor,1354,correct,last syllable cut off,Apr 25 2023 14:23:55,Agnieszka,1
5fe39,5fe39_session1_lista_speeded_trial124_circle.wav,1,a,peeded,124,circle,-1,no_resp,NA,Apr 25 2023 14:24:00,Agnieszka,1
5fe39,5fe39_session1_lista_speeded_trial125_caterpillar.wav,1,a,peeded,125,caterpillar,1164,correct,NA,Apr 25 2023 14:24:08,Agnieszka,1
5fe39,5fe39_session1_lista_speeded_trial126_dummy.wav,1,a,peeded,126,dummy,-1,wrong_word,NA,Apr 25 2023 14:24:16,Agnieszka,1
5fe39,5fe39_session1_lista_speeded_trial127_wall.wav,1,a,peeded,127,wall,892,correct,NA,Apr 25 2023 14:24:25,Agnieszka,1
5fe39,5fe39_session1_lista_speeded_trial128_doctor.wav,1,a,peeded,128,doctor,896,correct,NA,Apr 25 2023 14:24:39,Agnieszka,1
5fe39,5fe39_session1_lista_speeded_trial129_bull.wav,1,a,peeded,129,bull,-1,wrong_word,NA,Apr 25 2023 14:24:49,Agnieszka,1
5fe39,5fe39_session1_lista_speeded_trial130_wing.wav,1,a,peeded,130,wing,1197,correct,NA,Apr 25 2023 14:24:58,Agnieszka,1
5fe39,5fe39_session1_lista_speeded_trial131_drum.wav,1,a,peeded,131,drum,623,uncertain,sounds like "frum" to me,Apr 25 2023 14:25:20,Agnieszka,1
5fe39,5fe39_session1_lista_speeded_trial132_lighthouse.wav,1,a,peeded,132,lighthouse,708,correct,NA,Apr 25 2023 14:25:35,Agnieszka,1
5fe39,5fe39_session1_lista_speeded_trial133_nest.wav,1,a,peeded,133,nest,-1,no_resp,NA,Apr 25 2023 14:25:39,Agnieszka,1
5fe39,5fe39_session1_lista_speeded_trial134_ghost.wav,1,a,peeded,134,ghost,-1,uncertain,starts with the previous word,Apr 25 2023 14:25:50,Agnieszka,1
5fe39,5fe39_session1_lista_speeded_trial135_sun.wav,1,a,peeded,135,sun,508,correct,NA,Apr 25 2023 14:26:06,Agnieszka,1
5fe39,5fe39_session1_lista_speeded_trial136_book.wav,1,a,peeded,136,book,744,correct,NA,Apr 25 2023 14:26:14,Agnieszka,1
5fe39,5fe39_session1_lista_speeded_trial137_puppet.wav,1,a,peeded,137,puppet,1175,correct,NA,Apr 25 2023 14:26:24,Agnieszka,1
5fe39,5fe39_session1_lista_speeded_trial138_cork.wav,1,a,peeded,138,cork,-1,no_resp,NA,Apr 25 2023 14:26:28,Agnieszka,1
5fe39,5fe39_session1_lista_speeded_trial139_snake.wav,1,a,peeded,139,snake,596,correct,NA,Apr 25 2023 14:26:38,Agnieszka,1
5fe39,5fe39_session1_lista_speeded_trial140_key.wav,1,a,peeded,140,key,852,correct,NA,Apr 25 2023 14:26:43,Agnieszka,1
5fe39,5fe39_session1_lista_speeded_trial141_compass.wav,1,a,peeded,141,compass,813,correct,NA,Apr 25 2023 14:26:50,Agnieszka,1
5fe39,5fe39_session1_lista_speeded_trial142_butterfly.wav,1,a,peeded,142,butterfly,1051,correct,NA,Apr 25 2023 14:26:58,Agnieszka,1
5fe39,5fe39_session1_lista_speeded_trial143_pencil.wav,1,a,peeded,143,pencil,831,correct,NA,Apr 25 2023 14:27:04,Agnieszka,1
5fe39,5fe39_session1_lista_speeded_trial144_doughnut.wav,1,a,peeded,144,doughnut,593,correct,NA,Apr 25 2023 14:27:11,Agnieszka,1
5fe39,5fe39_session1_lista_speeded_trial145_kite.wav,1,a,peeded,145,kite,1011,correct,NA,Apr 25 2023 14:27:18,Agnieszka,1
5fe39,5fe39_session1_lista_speeded_trial146_dress.wav,1,a,peeded,146,dress,-1,disfluency,NA,Apr 25 2023 14:27:24,Agnieszka,1
5fe39,5fe39_session1_lista_speeded_trial147_bike.wav,1,a,peeded,147,bike,-1,wrong_word,NA,Apr 25 2023 14:27:28,Agnieszka,1
5fe39,5fe39_session1_lista_speeded_trial148_fence.wav,1,a,peeded,148,fence,1118,correct,NA,Apr 25 2023 14:27:36,Agnieszka,1
5fe39,5fe39_session1_lista_speeded_trial149_mouth.wav,1,a,peeded,149,mouth,796,correct,NA,Apr 25 2023 14:27:42,Agnieszka,1
5fe39,5fe39_session1_lista_speeded_trial150_beak.wav,1,a,peeded,150,beak,-1,no_resp,NA,Apr 25 2023 14:27:46,Agnieszka,1
