Participant_ID,File_Name,Session,List,Type_Trial,Trial_Nbr,Target,RT,Response_Trial,Comment,Date_Correction,Assessor_Name,Processed
5f31a,5f31a_session1_lista_speeded_trial001_gym.wav,1,a,peeded,1,gym,-1,no_resp,NA,Apr 26 2023 11:06:30,Agnieszka,1
5f31a,5f31a_session1_lista_speeded_trial002_kangaroo.wav,1,a,peeded,2,kangaroo,-1,disfluency,and starts with the previous word,Apr 26 2023 11:06:41,Agnieszka,1
5f31a,5f31a_session1_lista_speeded_trial003_dress.wav,1,a,peeded,3,dress,784,correct,NA,Apr 26 2023 11:06:53,Agnieszka,1
5f31a,5f31a_session1_lista_speeded_trial004_battery.wav,1,a,peeded,4,battery,901,correct,NA,Apr 26 2023 11:06:59,Agnieszka,1
5f31a,5f31a_session1_lista_speeded_trial005_olive.wav,1,a,peeded,5,olive,861,correct,NA,Apr 26 2023 11:07:08,Agnieszka,1
5f31a,5f31a_session1_lista_speeded_trial006_mountain.wav,1,a,peeded,6,mountain,863,correct,NA,Apr 26 2023 11:07:14,Agnieszka,1
5f31a,5f31a_session1_lista_speeded_trial007_kitchen.wav,1,a,peeded,7,kitchen,914,correct,NA,Apr 26 2023 11:07:30,Agnieszka,1
5f31a,5f31a_session1_lista_speeded_trial008_lighter.wav,1,a,peeded,8,lighter,971,correct,NA,Apr 26 2023 11:07:36,Agnieszka,1
5f31a,5f31a_session1_lista_speeded_trial009_pipe.wav,1,a,peeded,9,pipe,849,correct,NA,Apr 26 2023 11:07:44,Agnieszka,1
5f31a,5f31a_session1_lista_speeded_trial010_tie.wav,1,a,peeded,10,tie,764,correct,NA,Apr 26 2023 11:07:51,Agnieszka,1
5f31a,5f31a_session1_lista_speeded_trial011_ear.wav,1,a,peeded,11,ear,713,correct,NA,Apr 26 2023 11:07:59,Agnieszka,1
5f31a,5f31a_session1_lista_speeded_trial012_fox.wav,1,a,peeded,12,fox,706,correct,NA,Apr 26 2023 11:08:08,Agnieszka,1
5f31a,5f31a_session1_lista_speeded_trial013_clown.wav,1,a,peeded,13,clown,845,correct,NA,Apr 26 2023 11:08:17,Agnieszka,1
5f31a,5f31a_session1_lista_speeded_trial014_sausage.wav,1,a,peeded,14,sausage,778,correct,NA,Apr 26 2023 11:09:15,Agnieszka,1
5f31a,5f31a_session1_lista_speeded_trial015_donkey.wav,1,a,peeded,15,donkey,760,correct,NA,Apr 26 2023 11:09:31,Agnieszka,1
5f31a,5f31a_session1_lista_speeded_trial016_lawnmower.wav,1,a,peeded,16,lawnmower,760,correct,NA,Apr 26 2023 11:09:37,Agnieszka,1
5f31a,5f31a_session1_lista_speeded_trial017_butter.wav,1,a,peeded,17,butter,959,correct,NA,Apr 26 2023 11:09:51,Agnieszka,1
5f31a,5f31a_session1_lista_speeded_trial018_bottle.wav,1,a,peeded,18,bottle,802,correct,NA,Apr 26 2023 11:10:04,Agnieszka,1
5f31a,5f31a_session1_lista_speeded_trial019_drawer.wav,1,a,peeded,19,drawer,896,correct,NA,Apr 26 2023 11:10:09,Agnieszka,1
5f31a,5f31a_session1_lista_speeded_trial020_sun.wav,1,a,peeded,20,sun,674,correct,NA,Apr 26 2023 11:10:16,Agnieszka,1
5f31a,5f31a_session1_lista_speeded_trial021_tap.wav,1,a,peeded,21,tap,759,correct,NA,Apr 26 2023 11:10:24,Agnieszka,1
5f31a,5f31a_session1_lista_speeded_trial022_boxer.wav,1,a,peeded,22,boxer,914,correct,NA,Apr 26 2023 11:10:36,Agnieszka,1
5f31a,5f31a_session1_lista_speeded_trial023_bull.wav,1,a,peeded,23,bull,1159,correct,NA,Apr 26 2023 11:10:42,Agnieszka,1
5f31a,5f31a_session1_lista_speeded_trial024_koala.wav,1,a,peeded,24,koala,952,correct,NA,Apr 26 2023 11:10:49,Agnieszka,1
5f31a,5f31a_session1_lista_speeded_trial025_whale.wav,1,a,peeded,25,whale,892,correct,NA,Apr 26 2023 11:10:56,Agnieszka,1
5f31a,5f31a_session1_lista_speeded_trial026_lung.wav,1,a,peeded,26,lung,1332,correct,NA,Apr 26 2023 11:11:04,Agnieszka,1
5f31a,5f31a_session1_lista_speeded_trial027_book.wav,1,a,peeded,27,book,944,correct,NA,Apr 26 2023 11:11:13,Agnieszka,1
5f31a,5f31a_session1_lista_speeded_trial028_rocket.wav,1,a,peeded,28,rocket,849,correct,NA,Apr 26 2023 11:11:54,Agnieszka,1
5f31a,5f31a_session1_lista_speeded_trial029_fence.wav,1,a,peeded,29,fence,753,correct,NA,Apr 26 2023 11:12:00,Agnieszka,1
5f31a,5f31a_session1_lista_speeded_trial030_fridge.wav,1,a,peeded,30,fridge,753,correct,NA,Apr 26 2023 11:12:13,Agnieszka,1
5f31a,5f31a_session1_lista_speeded_trial031_doughnut.wav,1,a,peeded,31,doughnut,888,correct,NA,Apr 26 2023 11:12:17,Agnieszka,1
5f31a,5f31a_session1_lista_speeded_trial032_doctor.wav,1,a,peeded,32,doctor,1009,correct,NA,Apr 26 2023 11:12:28,Agnieszka,1
5f31a,5f31a_session1_lista_speeded_trial033_candle.wav,1,a,peeded,33,candle,805,correct,NA,Apr 26 2023 11:12:36,Agnieszka,1
5f31a,5f31a_session1_lista_speeded_trial034_tunnel.wav,1,a,peeded,34,tunnel,1395,correct,ending cut off,Apr 26 2023 11:12:49,Agnieszka,1
5f31a,5f31a_session1_lista_speeded_trial035_sword.wav,1,a,peeded,35,sword,-1,wrong_word,NA,Apr 26 2023 11:12:55,Agnieszka,1
5f31a,5f31a_session1_lista_speeded_trial036_judge.wav,1,a,peeded,36,judge,1056,correct,NA,Apr 26 2023 11:13:04,Agnieszka,1
5f31a,5f31a_session1_lista_speeded_trial037_hat.wav,1,a,peeded,37,hat,897,correct,NA,Apr 26 2023 11:13:13,Agnieszka,1
5f31a,5f31a_session1_lista_speeded_trial038_bear.wav,1,a,peeded,38,bear,833,correct,NA,Apr 26 2023 11:13:19,Agnieszka,1
5f31a,5f31a_session1_lista_speeded_trial039_crab.wav,1,a,peeded,39,crab,742,correct,NA,Apr 26 2023 11:14:08,Agnieszka,1
5f31a,5f31a_session1_lista_speeded_trial040_shower.wav,1,a,peeded,40,shower,908,correct,NA,Apr 26 2023 11:15:26,Agnieszka,1
5f31a,5f31a_session1_lista_speeded_trial041_goat.wav,1,a,peeded,41,goat,852,correct,NA,Apr 26 2023 11:15:34,Agnieszka,1
5f31a,5f31a_session1_lista_speeded_trial042_zebra.wav,1,a,peeded,42,zebra,810,correct,NA,Apr 26 2023 11:15:47,Agnieszka,1
5f31a,5f31a_session1_lista_speeded_trial043_bone.wav,1,a,peeded,43,bone,796,correct,NA,Apr 26 2023 11:16:02,Agnieszka,1
5f31a,5f31a_session1_lista_speeded_trial044_bus.wav,1,a,peeded,44,bus,798,correct,NA,Apr 26 2023 11:16:09,Agnieszka,1
5f31a,5f31a_session1_lista_speeded_trial045_flag.wav,1,a,peeded,45,flag,809,correct,NA,Apr 26 2023 11:16:28,Agnieszka,1
5f31a,5f31a_session1_lista_speeded_trial046_elbow.wav,1,a,peeded,46,elbow,903,correct,NA,Apr 26 2023 11:17:45,Agnieszka,1
5f31a,5f31a_session1_lista_speeded_trial047_dice.wav,1,a,peeded,47,dice,807,correct,NA,Apr 26 2023 11:19:18,Agnieszka,1
5f31a,5f31a_session1_lista_speeded_trial048_hippo.wav,1,a,peeded,48,hippo,753,correct,NA,Apr 26 2023 11:19:29,Agnieszka,1
5f31a,5f31a_session1_lista_speeded_trial049_mermaid.wav,1,a,peeded,49,mermaid,990,correct,NA,Apr 26 2023 11:19:43,Agnieszka,1
5f31a,5f31a_session1_lista_speeded_trial050_soap.wav,1,a,peeded,50,soap,842,correct,NA,Apr 26 2023 11:19:49,Agnieszka,1
5f31a,5f31a_session1_lista_speeded_trial051_computer.wav,1,a,peeded,51,computer,982,correct,NA,Apr 26 2023 11:20:02,Agnieszka,1
5f31a,5f31a_session1_lista_speeded_trial052_bracelet.wav,1,a,peeded,52,bracelet,865,correct,NA,Apr 26 2023 11:20:09,Agnieszka,1
5f31a,5f31a_session1_lista_speeded_trial053_tambourine.wav,1,a,peeded,53,tambourine,876,correct,NA,Apr 26 2023 11:21:18,Agnieszka,1
5f31a,5f31a_session1_lista_speeded_trial054_rhino.wav,1,a,peeded,54,rhino,787,correct,NA,Apr 26 2023 11:21:24,Agnieszka,1
5f31a,5f31a_session1_lista_speeded_trial055_carrot.wav,1,a,peeded,55,carrot,791,correct,NA,Apr 26 2023 11:21:35,Agnieszka,1
5f31a,5f31a_session1_lista_speeded_trial056_camel.wav,1,a,peeded,56,camel,793,correct,NA,Apr 26 2023 11:21:47,Agnieszka,1
5f31a,5f31a_session1_lista_speeded_trial057_sweet.wav,1,a,peeded,57,sweet,802,correct,NA,Apr 26 2023 11:21:54,Agnieszka,1
5f31a,5f31a_session1_lista_speeded_trial058_circle.wav,1,a,peeded,58,circle,-1,no_resp,NA,Apr 26 2023 11:22:07,Agnieszka,1
5f31a,5f31a_session1_lista_speeded_trial059_curtain.wav,1,a,peeded,59,curtain,-1,no_resp,NA,Apr 26 2023 11:22:31,Agnieszka,1
5f31a,5f31a_session1_lista_speeded_trial060_limo.wav,1,a,peeded,60,limo,847,correct,NA,Apr 26 2023 11:22:51,Agnieszka,1
5f31a,5f31a_session1_lista_speeded_trial061_wave.wav,1,a,peeded,61,wave,1377,correct,ending cut off,Apr 26 2023 11:22:59,Agnieszka,1
5f31a,5f31a_session1_lista_speeded_trial062_tiger.wav,1,a,peeded,62,tiger,810,correct,NA,Apr 26 2023 11:25:06,Agnieszka,1
5f31a,5f31a_session1_lista_speeded_trial063_mouth.wav,1,a,peeded,63,mouth,997,correct,NA,Apr 26 2023 11:25:12,Agnieszka,1
5f31a,5f31a_session1_lista_speeded_trial064_pineapple.wav,1,a,peeded,64,pineapple,753,correct,NA,Apr 26 2023 11:25:18,Agnieszka,1
5f31a,5f31a_session1_lista_speeded_trial065_owl.wav,1,a,peeded,65,owl,793,correct,NA,Apr 26 2023 11:25:25,Agnieszka,1
5f31a,5f31a_session1_lista_speeded_trial066_island.wav,1,a,peeded,66,island,921,correct,NA,Apr 26 2023 11:25:32,Agnieszka,1
5f31a,5f31a_session1_lista_speeded_trial067_glove.wav,1,a,peeded,67,glove,775,correct,NA,Apr 26 2023 11:25:41,Agnieszka,1
5f31a,5f31a_session1_lista_speeded_trial068_knife.wav,1,a,peeded,68,knife,739,correct,NA,Apr 26 2023 11:25:49,Agnieszka,1
5f31a,5f31a_session1_lista_speeded_trial069_wheelbarrow.wav,1,a,peeded,69,wheelbarrow,800,correct,NA,Apr 26 2023 11:25:55,Agnieszka,1
5f31a,5f31a_session1_lista_speeded_trial070_orange.wav,1,a,peeded,70,orange,834,correct,NA,Apr 26 2023 11:26:04,Agnieszka,1
5f31a,5f31a_session1_lista_speeded_trial071_wall.wav,1,a,peeded,71,wall,816,correct,NA,Apr 26 2023 11:26:12,Agnieszka,1
5f31a,5f31a_session1_lista_speeded_trial072_saw.wav,1,a,peeded,72,saw,890,correct,NA,Apr 26 2023 11:26:18,Agnieszka,1
5f31a,5f31a_session1_lista_speeded_trial073_suitcase.wav,1,a,peeded,73,suitcase,894,correct,NA,Apr 26 2023 11:26:25,Agnieszka,1
5f31a,5f31a_session1_lista_speeded_trial074_cork.wav,1,a,peeded,74,cork,-1,no_resp,NA,Apr 26 2023 11:26:30,Agnieszka,1
5f31a,5f31a_session1_lista_speeded_trial075_swan.wav,1,a,peeded,75,swan,674,correct,NA,Apr 26 2023 11:26:46,Agnieszka,1
5f31a,5f31a_session1_lista_speeded_trial076_comb.wav,1,a,peeded,76,comb,732,correct,NA,Apr 26 2023 11:26:52,Agnieszka,1
5f31a,5f31a_session1_lista_speeded_trial077_puppet.wav,1,a,peeded,77,puppet,1107,correct,NA,Apr 26 2023 11:26:59,Agnieszka,1
5f31a,5f31a_session1_lista_speeded_trial078_magnet.wav,1,a,peeded,78,magnet,970,correct,NA,Apr 26 2023 11:27:04,Agnieszka,1
5f31a,5f31a_session1_lista_speeded_trial079_apple.wav,1,a,peeded,79,apple,894,correct,NA,Apr 26 2023 11:27:11,Agnieszka,1
5f31a,5f31a_session1_lista_speeded_trial080_train.wav,1,a,peeded,80,train,789,correct,NA,Apr 26 2023 11:27:17,Agnieszka,1
5f31a,5f31a_session1_lista_speeded_trial081_flower.wav,1,a,peeded,81,flower,813,correct,NA,Apr 26 2023 11:28:23,Agnieszka,1
5f31a,5f31a_session1_lista_speeded_trial082_tree.wav,1,a,peeded,82,tree,822,correct,NA,Apr 26 2023 11:28:41,Agnieszka,1
5f31a,5f31a_session1_lista_speeded_trial083_caterpillar.wav,1,a,peeded,83,caterpillar,723,correct,NA,Apr 26 2023 11:28:53,Agnieszka,1
5f31a,5f31a_session1_lista_speeded_trial084_avocado.wav,1,a,peeded,84,avocado,979,correct,NA,Apr 26 2023 11:29:00,Agnieszka,1
5f31a,5f31a_session1_lista_speeded_trial085_cherry.wav,1,a,peeded,85,cherry,878,correct,NA,Apr 26 2023 11:29:12,Agnieszka,1
5f31a,5f31a_session1_lista_speeded_trial086_zip.wav,1,a,peeded,86,zip,890,correct,NA,Apr 26 2023 11:29:21,Agnieszka,1
5f31a,5f31a_session1_lista_speeded_trial087_castle.wav,1,a,peeded,87,castle,907,correct,NA,Apr 26 2023 11:29:58,Agnieszka,1
5f31a,5f31a_session1_lista_speeded_trial088_map.wav,1,a,peeded,88,map,966,correct,NA,Apr 26 2023 11:30:07,Agnieszka,1
5f31a,5f31a_session1_lista_speeded_trial089_fairy.wav,1,a,peeded,89,fairy,813,correct,NA,Apr 26 2023 11:30:17,Agnieszka,1
5f31a,5f31a_session1_lista_speeded_trial090_pear.wav,1,a,peeded,90,pear,793,correct,NA,Apr 26 2023 11:30:24,Agnieszka,1
5f31a,5f31a_session1_lista_speeded_trial091_nest.wav,1,a,peeded,91,nest,887,correct,NA,Apr 26 2023 11:30:30,Agnieszka,1
5f31a,5f31a_session1_lista_speeded_trial092_fireplace.wav,1,a,peeded,92,fireplace,869,correct,NA,Apr 26 2023 11:30:35,Agnieszka,1
5f31a,5f31a_session1_lista_speeded_trial093_pepper.wav,1,a,peeded,93,pepper,944,correct,NA,Apr 26 2023 11:30:43,Agnieszka,1
5f31a,5f31a_session1_lista_speeded_trial094_bench.wav,1,a,peeded,94,bench,784,correct,NA,Apr 26 2023 11:30:52,Agnieszka,1
5f31a,5f31a_session1_lista_speeded_trial095_bib.wav,1,a,peeded,95,bib,1002,correct,NA,Apr 26 2023 11:31:00,Agnieszka,1
5f31a,5f31a_session1_lista_speeded_trial096_fork.wav,1,a,peeded,96,fork,723,correct,NA,Apr 26 2023 11:31:06,Agnieszka,1
5f31a,5f31a_session1_lista_speeded_trial097_arm.wav,1,a,peeded,97,arm,892,correct,NA,Apr 26 2023 11:31:13,Agnieszka,1
5f31a,5f31a_session1_lista_speeded_trial098_basket.wav,1,a,peeded,98,basket,804,correct,NA,Apr 26 2023 11:32:31,Agnieszka,1
5f31a,5f31a_session1_lista_speeded_trial099_heel.wav,1,a,peeded,99,heel,847,correct,NA,Apr 26 2023 11:32:37,Agnieszka,1
5f31a,5f31a_session1_lista_speeded_trial100_net.wav,1,a,peeded,100,net,860,correct,NA,Apr 26 2023 11:32:42,Agnieszka,1
5f31a,5f31a_session1_lista_speeded_trial101_queen.wav,1,a,peeded,101,queen,786,correct,NA,Apr 26 2023 11:33:13,Agnieszka,1
5f31a,5f31a_session1_lista_speeded_trial102_shield.wav,1,a,peeded,102,shield,836,correct,NA,Apr 26 2023 11:33:24,Agnieszka,1
5f31a,5f31a_session1_lista_speeded_trial103_lighthouse.wav,1,a,peeded,103,lighthouse,991,correct,NA,Apr 26 2023 11:33:32,Agnieszka,1
5f31a,5f31a_session1_lista_speeded_trial104_robot.wav,1,a,peeded,104,robot,948,correct,NA,Apr 26 2023 11:33:36,Agnieszka,1
5f31a,5f31a_session1_lista_speeded_trial105_tongue.wav,1,a,peeded,105,tongue,1285,correct,,Apr 26 2023 11:33:49,Agnieszka,1
5f31a,5f31a_session1_lista_speeded_trial106_skirt.wav,1,a,peeded,106,skirt,916,correct,NA,Apr 26 2023 11:33:54,Agnieszka,1
5f31a,5f31a_session1_lista_speeded_trial107_helicopter.wav,1,a,peeded,107,helicopter,810,correct,NA,Apr 26 2023 11:33:59,Agnieszka,1
5f31a,5f31a_session1_lista_speeded_trial108_wing.wav,1,a,peeded,108,wing,825,correct,NA,Apr 26 2023 11:34:05,Agnieszka,1
5f31a,5f31a_session1_lista_speeded_trial109_butterfly.wav,1,a,peeded,109,butterfly,760,correct,NA,Apr 26 2023 11:34:11,Agnieszka,1
5f31a,5f31a_session1_lista_speeded_trial110_tray.wav,1,a,peeded,110,tray,829,correct,NA,Apr 26 2023 11:34:16,Agnieszka,1
5f31a,5f31a_session1_lista_speeded_trial111_onion.wav,1,a,peeded,111,onion,1284,correct,slightly cut off,Apr 26 2023 11:34:25,Agnieszka,1
5f31a,5f31a_session1_lista_speeded_trial112_peg.wav,1,a,peeded,112,peg,888,correct,NA,Apr 26 2023 11:34:33,Agnieszka,1
5f31a,5f31a_session1_lista_speeded_trial113_bike.wav,1,a,peeded,113,bike,746,correct,NA,Apr 26 2023 11:34:42,Agnieszka,1
5f31a,5f31a_session1_lista_speeded_trial114_pocket.wav,1,a,peeded,114,pocket,1237,correct,NA,Apr 26 2023 11:34:48,Agnieszka,1
5f31a,5f31a_session1_lista_speeded_trial115_submarine.wav,1,a,peeded,115,submarine,-1,no_resp,NA,Apr 26 2023 11:34:54,Agnieszka,1
5f31a,5f31a_session1_lista_speeded_trial116_triangle.wav,1,a,peeded,116,triangle,842,correct,NA,Apr 26 2023 11:35:00,Agnieszka,1
5f31a,5f31a_session1_lista_speeded_trial117_ghost.wav,1,a,peeded,117,ghost,719,correct,NA,Apr 26 2023 11:35:09,Agnieszka,1
5f31a,5f31a_session1_lista_speeded_trial118_drum.wav,1,a,peeded,118,drum,719,correct,NA,Apr 26 2023 11:35:16,Agnieszka,1
5f31a,5f31a_session1_lista_speeded_trial119_thumb.wav,1,a,peeded,119,thumb,757,correct,NA,Apr 26 2023 11:35:27,Agnieszka,1
5f31a,5f31a_session1_lista_speeded_trial120_scissors.wav,1,a,peeded,120,scissors,804,correct,NA,Apr 26 2023 11:35:32,Agnieszka,1
5f31a,5f31a_session1_lista_speeded_trial121_rabbit.wav,1,a,peeded,121,rabbit,-1,wrong_word,NA,Apr 26 2023 11:35:37,Agnieszka,1
5f31a,5f31a_session1_lista_speeded_trial122_tomato.wav,1,a,peeded,122,tomato,874,correct,NA,Apr 26 2023 11:35:49,Agnieszka,1
5f31a,5f31a_session1_lista_speeded_trial123_key.wav,1,a,peeded,123,key,810,correct,NA,Apr 26 2023 11:35:53,Agnieszka,1
5f31a,5f31a_session1_lista_speeded_trial124_medal.wav,1,a,peeded,124,medal,825,correct,NA,Apr 26 2023 11:35:59,Agnieszka,1
5f31a,5f31a_session1_lista_speeded_trial125_bullet.wav,1,a,peeded,125,bullet,993,correct,NA,Apr 26 2023 11:36:13,Agnieszka,1
5f31a,5f31a_session1_lista_speeded_trial126_dummy.wav,1,a,peeded,126,dummy,907,correct,NA,Apr 26 2023 11:36:22,Agnieszka,1
5f31a,5f31a_session1_lista_speeded_trial127_beak.wav,1,a,peeded,127,beak,980,correct,NA,Apr 26 2023 11:36:27,Agnieszka,1
5f31a,5f31a_session1_lista_speeded_trial128_suit.wav,1,a,peeded,128,suit,818,correct,NA,Apr 26 2023 11:36:33,Agnieszka,1
5f31a,5f31a_session1_lista_speeded_trial129_windmill.wav,1,a,peeded,129,windmill,-1,wrong_word,NA,Apr 26 2023 11:36:38,Agnieszka,1
5f31a,5f31a_session1_lista_speeded_trial130_bell.wav,1,a,peeded,130,bell,858,correct,NA,Apr 26 2023 11:36:43,Agnieszka,1
5f31a,5f31a_session1_lista_speeded_trial131_jellyfish.wav,1,a,peeded,131,jellyfish,809,correct,NA,Apr 26 2023 11:36:49,Agnieszka,1
5f31a,5f31a_session1_lista_speeded_trial132_arrow.wav,1,a,peeded,132,arrow,829,correct,NA,Apr 26 2023 11:36:55,Agnieszka,1
5f31a,5f31a_session1_lista_speeded_trial133_pencil.wav,1,a,peeded,133,pencil,809,correct,NA,Apr 26 2023 11:37:02,Agnieszka,1
5f31a,5f31a_session1_lista_speeded_trial134_squirrel.wav,1,a,peeded,134,squirrel,753,correct,NA,Apr 26 2023 11:37:08,Agnieszka,1
5f31a,5f31a_session1_lista_speeded_trial135_coat.wav,1,a,peeded,135,coat,791,correct,NA,Apr 26 2023 11:37:14,Agnieszka,1
5f31a,5f31a_session1_lista_speeded_trial136_tattoo.wav,1,a,peeded,136,tattoo,971,correct,NA,Apr 26 2023 11:37:19,Agnieszka,1
5f31a,5f31a_session1_lista_speeded_trial137_ruler.wav,1,a,peeded,137,ruler,1080,correct,NA,Apr 26 2023 11:37:25,Agnieszka,1
5f31a,5f31a_session1_lista_speeded_trial138_plumber.wav,1,a,peeded,138,plumber,910,correct,NA,Apr 26 2023 11:37:31,Agnieszka,1
5f31a,5f31a_session1_lista_speeded_trial139_kiwi.wav,1,a,peeded,139,kiwi,861,correct,NA,Apr 26 2023 11:37:44,Agnieszka,1
5f31a,5f31a_session1_lista_speeded_trial140_lamp.wav,1,a,peeded,140,lamp,750,correct,NA,Apr 26 2023 11:37:53,Agnieszka,1
5f31a,5f31a_session1_lista_speeded_trial141_compass.wav,1,a,peeded,141,compass,-1,wrong_word,NA,Apr 26 2023 11:37:59,Agnieszka,1
5f31a,5f31a_session1_lista_speeded_trial142_star.wav,1,a,peeded,142,star,-1,uncertain,starts with previous word,Apr 26 2023 11:38:09,Agnieszka,1
5f31a,5f31a_session1_lista_speeded_trial143_flipper.wav,1,a,peeded,143,flipper,-1,no_resp,NA,Apr 26 2023 11:38:14,Agnieszka,1
5f31a,5f31a_session1_lista_speeded_trial144_rose.wav,1,a,peeded,144,rose,1053,correct,NA,Apr 26 2023 11:38:19,Agnieszka,1
5f31a,5f31a_session1_lista_speeded_trial145_teacher.wav,1,a,peeded,145,teacher,1006,correct,NA,Apr 26 2023 11:38:26,Agnieszka,1
5f31a,5f31a_session1_lista_speeded_trial146_tractor.wav,1,a,peeded,146,tractor,843,correct,NA,Apr 26 2023 11:38:34,Agnieszka,1
5f31a,5f31a_session1_lista_speeded_trial147_potato.wav,1,a,peeded,147,potato,914,correct,NA,Apr 26 2023 11:38:41,Agnieszka,1
5f31a,5f31a_session1_lista_speeded_trial148_shoe.wav,1,a,peeded,148,shoe,733,correct,NA,Apr 26 2023 11:38:46,Agnieszka,1
5f31a,5f31a_session1_lista_speeded_trial149_snake.wav,1,a,peeded,149,snake,735,correct,NA,Apr 26 2023 11:38:51,Agnieszka,1
5f31a,5f31a_session1_lista_speeded_trial150_kite.wav,1,a,peeded,150,kite,930,correct,NA,Apr 26 2023 11:38:59,Agnieszka,1
