Participant_ID,File_Name,Session,List,Type_Trial,Trial_Nbr,Target,RT,Response_Trial,Comment,Date_Correction,Assessor_Name,Processed
5baa7,5baa7_session1_lista_speeded_trial001_teacher.wav,1,a,peeded,1,teacher,666,correct,NA,Apr 26 2023 17:58:59,Radhika,1
5baa7,5baa7_session1_lista_speeded_trial002_wave.wav,1,a,peeded,2,wave,721,correct,NA,Apr 26 2023 17:59:17,Radhika,1
5baa7,5baa7_session1_lista_speeded_trial003_basket.wav,1,a,peeded,3,basket,742,correct,NA,Apr 26 2023 17:59:38,Radhika,1
5baa7,5baa7_session1_lista_speeded_trial004_tattoo.wav,1,a,peeded,4,tattoo,777,correct,NA,Apr 26 2023 18:00:25,Radhika,1
5baa7,5baa7_session1_lista_speeded_trial005_medal.wav,1,a,peeded,5,medal,585,correct,NA,Apr 26 2023 18:00:36,Radhika,1
5baa7,5baa7_session1_lista_speeded_trial006_rose.wav,1,a,peeded,6,rose,535,correct,NA,Apr 26 2023 18:23:01,Radhika,1
5baa7,5baa7_session1_lista_speeded_trial007_wall.wav,1,a,peeded,7,wall,686,correct,NA,Apr 26 2023 19:30:43,Radhika,1
5baa7,5baa7_session1_lista_speeded_trial008_net.wav,1,a,peeded,8,net,633,correct,NA,Apr 26 2023 19:31:00,Radhika,1
5baa7,5baa7_session1_lista_speeded_trial009_peg.wav,1,a,peeded,9,peg,785,correct,NA,Apr 26 2023 19:31:52,Radhika,1
5baa7,5baa7_session1_lista_speeded_trial010_tractor.wav,1,a,peeded,10,tractor,644,correct,NA,Apr 26 2023 19:32:35,Radhika,1
5baa7,5baa7_session1_lista_speeded_trial011_goat.wav,1,a,peeded,11,goat,835,correct,NA,Apr 26 2023 19:33:52,Radhika,1
5baa7,5baa7_session1_lista_speeded_trial012_cherry.wav,1,a,peeded,12,cherry,699,correct,NA,Apr 26 2023 19:35:21,Radhika,1
5baa7,5baa7_session1_lista_speeded_trial013_magnet.wav,1,a,peeded,13,magnet,656,correct,NA,Apr 26 2023 19:35:37,Radhika,1
5baa7,5baa7_session1_lista_speeded_trial014_puppet.wav,1,a,peeded,14,puppet,750,no_resp,NA,Apr 26 2023 19:36:51,Radhika,1
5baa7,5baa7_session1_lista_speeded_trial015_map.wav,1,a,peeded,15,map,-1,wrong_word,NA,Apr 26 2023 19:37:00,Radhika,1
5baa7,5baa7_session1_lista_speeded_trial016_glove.wav,1,a,peeded,16,glove,736,correct,NA,Apr 26 2023 19:38:20,Radhika,1
5baa7,5baa7_session1_lista_speeded_trial017_flag.wav,1,a,peeded,17,flag,800,correct,NA,Apr 26 2023 19:39:58,Radhika,1
5baa7,5baa7_session1_lista_speeded_trial018_ghost.wav,1,a,peeded,18,ghost,685,correct,NA,Apr 26 2023 19:52:42,Radhika,1
5baa7,5baa7_session1_lista_speeded_trial019_pear.wav,1,a,peeded,19,pear,714,correct,NA,Apr 26 2023 19:53:18,Radhika,1
5baa7,5baa7_session1_lista_speeded_trial020_gym.wav,1,a,peeded,20,gym,990,correct,NA,Apr 26 2023 19:54:02,Radhika,1
5baa7,5baa7_session1_lista_speeded_trial021_flower.wav,1,a,peeded,21,flower,793,correct,NA,Apr 26 2023 19:54:34,Radhika,1
5baa7,5baa7_session1_lista_speeded_trial022_fireplace.wav,1,a,peeded,22,fireplace,767,correct,NA,Apr 26 2023 19:56:36,Radhika,1
5baa7,5baa7_session1_lista_speeded_trial023_sausage.wav,1,a,peeded,23,sausage,706,correct,NA,Apr 26 2023 19:57:11,Radhika,1
5baa7,5baa7_session1_lista_speeded_trial024_sword.wav,1,a,peeded,24,sword,686,correct,NA,Apr 26 2023 19:57:50,Radhika,1
5baa7,5baa7_session1_lista_speeded_trial025_suit.wav,1,a,peeded,25,suit,748,correct,NA,Apr 26 2023 19:58:40,Radhika,1
5baa7,5baa7_session1_lista_speeded_trial026_limo.wav,1,a,peeded,26,limo,1042,correct,NA,Apr 26 2023 19:59:05,Radhika,1
5baa7,5baa7_session1_lista_speeded_trial027_pencil.wav,1,a,peeded,27,pencil,777,correct,NA,Apr 26 2023 20:00:04,Radhika,1
5baa7,5baa7_session1_lista_speeded_trial028_heel.wav,1,a,peeded,28,heel,749,correct,NA,Apr 26 2023 20:01:12,Radhika,1
5baa7,5baa7_session1_lista_speeded_trial029_apple.wav,1,a,peeded,29,apple,869,correct,NA,Apr 26 2023 20:01:45,Radhika,1
5baa7,5baa7_session1_lista_speeded_trial030_pipe.wav,1,a,peeded,30,pipe,808,correct,NA,Apr 26 2023 20:02:30,Radhika,1
5baa7,5baa7_session1_lista_speeded_trial031_key.wav,1,a,peeded,31,key,709,correct,NA,Apr 26 2023 20:03:37,Radhika,1
5baa7,5baa7_session1_lista_speeded_trial032_pineapple.wav,1,a,peeded,32,pineapple,670,correct,NA,Apr 26 2023 20:04:20,Radhika,1
5baa7,5baa7_session1_lista_speeded_trial033_avocado.wav,1,a,peeded,33,avocado,767,correct,NA,Apr 26 2023 20:04:52,Radhika,1
5baa7,5baa7_session1_lista_speeded_trial034_ruler.wav,1,a,peeded,34,ruler,720,correct,NA,Apr 26 2023 20:05:13,Radhika,1
5baa7,5baa7_session1_lista_speeded_trial035_cork.wav,1,a,peeded,35,cork,839,correct,NA,Apr 26 2023 20:13:21,Radhika,1
5baa7,5baa7_session1_lista_speeded_trial036_whale.wav,1,a,peeded,36,whale,756,correct,NA,Apr 26 2023 20:13:37,Radhika,1
5baa7,5baa7_session1_lista_speeded_trial037_soap.wav,1,a,peeded,37,soap,-1,no_resp,NA,Apr 26 2023 20:13:44,Radhika,1
5baa7,5baa7_session1_lista_speeded_trial038_bench.wav,1,a,peeded,38,bench,833,correct,NA,Apr 26 2023 20:14:38,Radhika,1
5baa7,5baa7_session1_lista_speeded_trial039_caterpillar.wav,1,a,peeded,39,caterpillar,911,correct,NA,Apr 26 2023 20:26:15,Radhika,1
5baa7,5baa7_session1_lista_speeded_trial040_compass.wav,1,a,peeded,40,compass,-1,no_resp,NA,Apr 26 2023 20:26:20,Radhika,1
5baa7,5baa7_session1_lista_speeded_trial041_lighthouse.wav,1,a,peeded,41,lighthouse,733,correct,NA,Apr 26 2023 20:26:31,Radhika,1
5baa7,5baa7_session1_lista_speeded_trial042_fridge.wav,1,a,peeded,42,fridge,680,correct,NA,Apr 26 2023 20:45:33,Radhika,1
5baa7,5baa7_session1_lista_speeded_trial043_doughnut.wav,1,a,peeded,43,doughnut,712,correct,NA,Apr 26 2023 20:46:41,Radhika,1
5baa7,5baa7_session1_lista_speeded_trial044_kitchen.wav,1,a,peeded,44,kitchen,741,correct,NA,Apr 26 2023 20:47:30,Radhika,1
5baa7,5baa7_session1_lista_speeded_trial045_skirt.wav,1,a,peeded,45,skirt,774,correct,NA,Apr 26 2023 20:48:04,Radhika,1
5baa7,5baa7_session1_lista_speeded_trial046_wheelbarrow.wav,1,a,peeded,46,wheelbarrow,712,correct,NA,Apr 26 2023 20:48:14,Radhika,1
5baa7,5baa7_session1_lista_speeded_trial047_dice.wav,1,a,peeded,47,dice,697,correct,NA,Apr 26 2023 20:48:54,Radhika,1
5baa7,5baa7_session1_lista_speeded_trial048_clown.wav,1,a,peeded,48,clown,781,correct,NA,Apr 26 2023 20:49:34,Radhika,1
5baa7,5baa7_session1_lista_speeded_trial049_train.wav,1,a,peeded,49,train,749,correct,NA,Apr 26 2023 20:50:03,Radhika,1
5baa7,5baa7_session1_lista_speeded_trial050_snake.wav,1,a,peeded,50,snake,624,correct,NA,Apr 26 2023 20:50:27,Radhika,1
5baa7,5baa7_session1_lista_speeded_trial051_lawnmower.wav,1,a,peeded,51,lawnmower,-1,disfluency,NA,Apr 26 2023 20:50:39,Radhika,1
5baa7,5baa7_session1_lista_speeded_trial052_orange.wav,1,a,peeded,52,orange,899,correct,NA,Apr 26 2023 20:51:03,Radhika,1
5baa7,5baa7_session1_lista_speeded_trial053_coat.wav,1,a,peeded,53,coat,926,correct,NA,Apr 26 2023 20:52:17,Radhika,1
5baa7,5baa7_session1_lista_speeded_trial054_squirrel.wav,1,a,peeded,54,squirrel,703,correct,NA,Apr 26 2023 20:52:35,Radhika,1
5baa7,5baa7_session1_lista_speeded_trial055_nest.wav,1,a,peeded,55,nest,768,correct,NA,Apr 26 2023 20:52:44,Radhika,1
5baa7,5baa7_session1_lista_speeded_trial056_donkey.wav,1,a,peeded,56,donkey,700,correct,NA,Apr 26 2023 20:53:13,Radhika,1
5baa7,5baa7_session1_lista_speeded_trial057_tray.wav,1,a,peeded,57,tray,761,correct,NA,Apr 26 2023 20:53:54,Radhika,1
5baa7,5baa7_session1_lista_speeded_trial058_kangaroo.wav,1,a,peeded,58,kangaroo,684,correct,NA,Apr 26 2023 20:54:26,Radhika,1
5baa7,5baa7_session1_lista_speeded_trial059_tambourine.wav,1,a,peeded,59,tambourine,707,correct,NA,Apr 26 2023 20:54:59,Radhika,1
5baa7,5baa7_session1_lista_speeded_trial060_comb.wav,1,a,peeded,60,comb,628,correct,NA,Apr 26 2023 20:55:30,Radhika,1
5baa7,5baa7_session1_lista_speeded_trial061_tomato.wav,1,a,peeded,61,tomato,669,correct,NA,Apr 26 2023 20:55:44,Radhika,1
5baa7,5baa7_session1_lista_speeded_trial062_castle.wav,1,a,peeded,62,castle,856,correct,NA,Apr 26 2023 20:56:27,Radhika,1
5baa7,5baa7_session1_lista_speeded_trial063_doctor.wav,1,a,peeded,63,doctor,729,correct,NA,Apr 26 2023 20:57:01,Radhika,1
5baa7,5baa7_session1_lista_speeded_trial064_elbow.wav,1,a,peeded,64,elbow,860,correct,NA,Apr 26 2023 20:57:23,Radhika,1
5baa7,5baa7_session1_lista_speeded_trial065_pocket.wav,1,a,peeded,65,pocket,844,correct,NA,Apr 26 2023 20:57:51,Radhika,1
5baa7,5baa7_session1_lista_speeded_trial066_star.wav,1,a,peeded,66,star,634,correct,NA,Apr 26 2023 20:58:36,Radhika,1
5baa7,5baa7_session1_lista_speeded_trial067_onion.wav,1,a,peeded,67,onion,920,correct,NA,Apr 26 2023 20:58:50,Radhika,1
5baa7,5baa7_session1_lista_speeded_trial068_circle.wav,1,a,peeded,68,circle,-1,no_resp,NA,Apr 26 2023 20:59:00,Radhika,1
5baa7,5baa7_session1_lista_speeded_trial069_tree.wav,1,a,peeded,69,tree,1107,correct,NA,Apr 26 2023 20:59:23,Radhika,1
5baa7,5baa7_session1_lista_speeded_trial070_plumber.wav,1,a,peeded,70,plumber,858,correct,NA,Apr 26 2023 21:00:40,Radhika,1
5baa7,5baa7_session1_lista_speeded_trial071_potato.wav,1,a,peeded,71,potato,672,correct,NA,Apr 26 2023 21:01:04,Radhika,1
5baa7,5baa7_session1_lista_speeded_trial072_tie.wav,1,a,peeded,72,tie,627,correct,NA,Apr 26 2023 21:01:24,Radhika,1
5baa7,5baa7_session1_lista_speeded_trial073_beak.wav,1,a,peeded,73,beak,671,correct,NA,Apr 26 2023 21:01:40,Radhika,1
5baa7,5baa7_session1_lista_speeded_trial074_fork.wav,1,a,peeded,74,fork,618,correct,NA,Apr 26 2023 21:02:12,Radhika,1
5baa7,5baa7_session1_lista_speeded_trial075_mouth.wav,1,a,peeded,75,mouth,-1,correct,NA,Apr 26 2023 21:02:22,Radhika,1
5baa7,5baa7_session1_lista_speeded_trial076_tap.wav,1,a,peeded,76,tap,670,correct,NA,Apr 26 2023 21:02:49,Radhika,1
5baa7,5baa7_session1_lista_speeded_trial077_lighter.wav,1,a,peeded,77,lighter,809,correct,NA,Apr 26 2023 21:02:59,Radhika,1
5baa7,5baa7_session1_lista_speeded_trial078_crab.wav,1,a,peeded,78,crab,629,correct,NA,Apr 26 2023 21:03:30,Radhika,1
5baa7,5baa7_session1_lista_speeded_trial079_battery.wav,1,a,peeded,79,battery,685,correct,NA,Apr 26 2023 21:03:49,Radhika,1
5baa7,5baa7_session1_lista_speeded_trial080_rabbit.wav,1,a,peeded,80,rabbit,-1,disfluency,NA,Apr 26 2023 21:04:11,Radhika,1
5baa7,5baa7_session1_lista_speeded_trial081_shield.wav,1,a,peeded,81,shield,939,correct,NA,Apr 26 2023 21:04:29,Radhika,1
5baa7,5baa7_session1_lista_speeded_trial082_tongue.wav,1,a,peeded,82,tongue,820,correct,NA,Apr 26 2023 21:04:51,Radhika,1
5baa7,5baa7_session1_lista_speeded_trial083_boxer.wav,1,a,peeded,83,boxer,717,correct,NA,Apr 26 2023 21:05:08,Radhika,1
5baa7,5baa7_session1_lista_speeded_trial084_drum.wav,1,a,peeded,84,drum,738,correct,NA,Apr 26 2023 21:05:34,Radhika,1
5baa7,5baa7_session1_lista_speeded_trial085_judge.wav,1,a,peeded,85,judge,-1,no_resp,NA,Apr 26 2023 21:05:44,Radhika,1
5baa7,5baa7_session1_lista_speeded_trial086_swan.wav,1,a,peeded,86,swan,709,correct,NA,Apr 26 2023 21:06:46,Radhika,1
5baa7,5baa7_session1_lista_speeded_trial087_book.wav,1,a,peeded,87,book,819,correct,NA,Apr 26 2023 21:06:47,Radhika,1
5baa7,5baa7_session1_lista_speeded_trial088_butterfly.wav,1,a,peeded,88,butterfly,661,correct,NA,Apr 26 2023 21:06:52,Radhika,1
5baa7,5baa7_session1_lista_speeded_trial089_island.wav,1,a,peeded,89,island,741,correct,NA,Apr 26 2023 21:07:13,Radhika,1
5baa7,5baa7_session1_lista_speeded_trial090_zebra.wav,1,a,peeded,90,zebra,686,correct,NA,Apr 26 2023 21:07:39,Radhika,1
5baa7,5baa7_session1_lista_speeded_trial091_computer.wav,1,a,peeded,91,computer,771,correct,NA,Apr 26 2023 21:07:59,Radhika,1
5baa7,5baa7_session1_lista_speeded_trial092_rocket.wav,1,a,peeded,92,rocket,1116,correct,NA,Apr 26 2023 21:08:10,Radhika,1
5baa7,5baa7_session1_lista_speeded_trial093_zip.wav,1,a,peeded,93,zip,598,correct,NA,Apr 26 2023 21:08:26,Radhika,1
5baa7,5baa7_session1_lista_speeded_trial094_kite.wav,1,a,peeded,94,kite,-1,wrong_word,NA,Apr 26 2023 21:09:41,Radhika,1
5baa7,5baa7_session1_lista_speeded_trial095_bib.wav,1,a,peeded,95,bib,-1,no_resp,NA,Apr 26 2023 21:09:45,Radhika,1
5baa7,5baa7_session1_lista_speeded_trial096_candle.wav,1,a,peeded,96,candle,871,correct,NA,Apr 26 2023 21:09:59,Radhika,1
5baa7,5baa7_session1_lista_speeded_trial097_dress.wav,1,a,peeded,97,dress,809,correct,NA,Apr 26 2023 21:10:26,Radhika,1
5baa7,5baa7_session1_lista_speeded_trial098_arrow.wav,1,a,peeded,98,arrow,752,correct,NA,Apr 26 2023 21:11:10,Radhika,1
5baa7,5baa7_session1_lista_speeded_trial099_jellyfish.wav,1,a,peeded,99,jellyfish,796,correct,NA,Apr 26 2023 21:11:30,Radhika,1
5baa7,5baa7_session1_lista_speeded_trial100_triangle.wav,1,a,peeded,100,triangle,740,correct,NA,Apr 26 2023 21:11:59,Radhika,1
5baa7,5baa7_session1_lista_speeded_trial101_dummy.wav,1,a,peeded,101,dummy,941,correct,NA,Apr 26 2023 21:52:31,Radhika,1
5baa7,5baa7_session1_lista_speeded_trial102_kiwi.wav,1,a,peeded,102,kiwi,696,correct,NA,Apr 26 2023 21:52:33,Radhika,1
5baa7,5baa7_session1_lista_speeded_trial103_knife.wav,1,a,peeded,103,knife,632,correct,NA,Apr 26 2023 21:52:48,Radhika,1
5baa7,5baa7_session1_lista_speeded_trial104_pepper.wav,1,a,peeded,104,pepper,732,correct,NA,Apr 26 2023 21:53:05,Radhika,1
5baa7,5baa7_session1_lista_speeded_trial105_shower.wav,1,a,peeded,105,shower,669,correct,NA,Apr 26 2023 21:53:38,Radhika,1
5baa7,5baa7_session1_lista_speeded_trial106_bear.wav,1,a,peeded,106,bear,716,correct,NA,Apr 26 2023 21:53:50,Radhika,1
5baa7,5baa7_session1_lista_speeded_trial107_hippo.wav,1,a,peeded,107,hippo,777,correct,NA,Apr 26 2023 21:54:09,Radhika,1
5baa7,5baa7_session1_lista_speeded_trial108_queen.wav,1,a,peeded,108,queen,864,correct,NA,Apr 26 2023 21:54:34,Radhika,1
5baa7,5baa7_session1_lista_speeded_trial109_sweet.wav,1,a,peeded,109,sweet,891,correct,NA,Apr 26 2023 21:55:08,Radhika,1
5baa7,5baa7_session1_lista_speeded_trial110_submarine.wav,1,a,peeded,110,submarine,1097,correct,NA,Apr 26 2023 21:56:08,Radhika,1
5baa7,5baa7_session1_lista_speeded_trial111_owl.wav,1,a,peeded,111,owl,730,correct,NA,Apr 26 2023 21:56:29,Radhika,1
5baa7,5baa7_session1_lista_speeded_trial112_robot.wav,1,a,peeded,112,robot,729,correct,NA,Apr 26 2023 21:56:45,Radhika,1
5baa7,5baa7_session1_lista_speeded_trial113_wing.wav,1,a,peeded,113,wing,712,correct,NA,Apr 26 2023 21:57:03,Radhika,1
5baa7,5baa7_session1_lista_speeded_trial114_windmill.wav,1,a,peeded,114,windmill,-1,correct,NA,Apr 26 2023 21:57:16,Radhika,1
5baa7,5baa7_session1_lista_speeded_trial115_bull.wav,1,a,peeded,115,bull,890,correct,NA,Apr 26 2023 21:57:40,Radhika,1
5baa7,5baa7_session1_lista_speeded_trial116_helicopter.wav,1,a,peeded,116,helicopter,890,correct,NA,Apr 26 2023 21:58:40,Radhika,1
5baa7,5baa7_session1_lista_speeded_trial117_carrot.wav,1,a,peeded,117,carrot,552,correct,NA,Apr 26 2023 21:58:59,Radhika,1
5baa7,5baa7_session1_lista_speeded_trial118_suitcase.wav,1,a,peeded,118,suitcase,867,correct,NA,Apr 26 2023 21:59:25,Radhika,1
5baa7,5baa7_session1_lista_speeded_trial119_ear.wav,1,a,peeded,119,ear,765,correct,NA,Apr 26 2023 21:59:56,Radhika,1
5baa7,5baa7_session1_lista_speeded_trial120_butter.wav,1,a,peeded,120,butter,911,correct,NA,Apr 26 2023 22:00:20,Radhika,1
5baa7,5baa7_session1_lista_speeded_trial121_flipper.wav,1,a,peeded,121,flipper,928,correct,NA,Apr 26 2023 22:00:58,Radhika,1
5baa7,5baa7_session1_lista_speeded_trial122_thumb.wav,1,a,peeded,122,thumb,1014,correct,NA,Apr 26 2023 22:01:27,Radhika,1
5baa7,5baa7_session1_lista_speeded_trial123_mermaid.wav,1,a,peeded,123,mermaid,882,correct,NA,Apr 26 2023 22:01:40,Radhika,1
5baa7,5baa7_session1_lista_speeded_trial124_drawer.wav,1,a,peeded,124,drawer,945,correct,NA,Apr 26 2023 22:02:07,Radhika,1
5baa7,5baa7_session1_lista_speeded_trial125_mountain.wav,1,a,peeded,125,mountain,1071,correct,NA,Apr 26 2023 22:02:20,Radhika,1
5baa7,5baa7_session1_lista_speeded_trial126_hat.wav,1,a,peeded,126,hat,671,correct,NA,Apr 26 2023 22:03:50,Radhika,1
5baa7,5baa7_session1_lista_speeded_trial127_bone.wav,1,a,peeded,127,bone,662,correct,NA,Apr 26 2023 22:04:07,Radhika,1
5baa7,5baa7_session1_lista_speeded_trial128_bike.wav,1,a,peeded,128,bike,601,correct,NA,Apr 26 2023 22:04:22,Radhika,1
5baa7,5baa7_session1_lista_speeded_trial129_fairy.wav,1,a,peeded,129,fairy,567,correct,NA,Apr 26 2023 22:05:43,Radhika,1
5baa7,5baa7_session1_lista_speeded_trial130_bell.wav,1,a,peeded,130,bell,641,correct,NA,Apr 26 2023 22:06:15,Radhika,1
5baa7,5baa7_session1_lista_speeded_trial131_lamp.wav,1,a,peeded,131,lamp,792,correct,NA,Apr 26 2023 22:06:28,Radhika,1
5baa7,5baa7_session1_lista_speeded_trial132_fence.wav,1,a,peeded,132,fence,896,correct,NA,Apr 26 2023 22:07:09,Radhika,1
5baa7,5baa7_session1_lista_speeded_trial133_koala.wav,1,a,peeded,133,koala,785,correct,NA,Apr 26 2023 22:07:48,Radhika,1
5baa7,5baa7_session1_lista_speeded_trial134_camel.wav,1,a,peeded,134,camel,1075,correct,NA,Apr 26 2023 22:08:12,Radhika,1
5baa7,5baa7_session1_lista_speeded_trial135_sun.wav,1,a,peeded,135,sun,678,correct,NA,Apr 26 2023 22:09:07,Radhika,1
5baa7,5baa7_session1_lista_speeded_trial136_scissors.wav,1,a,peeded,136,scissors,708,correct,NA,Apr 26 2023 22:09:36,Radhika,1
5baa7,5baa7_session1_lista_speeded_trial137_saw.wav,1,a,peeded,137,saw,680,correct,NA,Apr 26 2023 22:10:12,Radhika,1
5baa7,5baa7_session1_lista_speeded_trial138_bullet.wav,1,a,peeded,138,bullet,920,correct,NA,Apr 26 2023 22:10:27,Radhika,1
5baa7,5baa7_session1_lista_speeded_trial139_fox.wav,1,a,peeded,139,fox,637,correct,NA,Apr 26 2023 22:11:18,Radhika,1
5baa7,5baa7_session1_lista_speeded_trial140_curtain.wav,1,a,peeded,140,curtain,721,correct,NA,Apr 26 2023 22:11:39,Radhika,1
5baa7,5baa7_session1_lista_speeded_trial141_tunnel.wav,1,a,peeded,141,tunnel,803,correct,NA,Apr 26 2023 22:12:32,Radhika,1
5baa7,5baa7_session1_lista_speeded_trial142_rhino.wav,1,a,peeded,142,rhino,734,correct,NA,Apr 26 2023 22:12:44,Radhika,1
5baa7,5baa7_session1_lista_speeded_trial143_arm.wav,1,a,peeded,143,arm,727,correct,NA,Apr 26 2023 22:13:02,Radhika,1
5baa7,5baa7_session1_lista_speeded_trial144_olive.wav,1,a,peeded,144,olive,670,correct,NA,Apr 26 2023 22:13:31,Radhika,1
5baa7,5baa7_session1_lista_speeded_trial145_bottle.wav,1,a,peeded,145,bottle,700,correct,NA,Apr 26 2023 22:13:52,Radhika,1
5baa7,5baa7_session1_lista_speeded_trial146_tiger.wav,1,a,peeded,146,tiger,669,correct,NA,Apr 26 2023 22:14:17,Radhika,1
5baa7,5baa7_session1_lista_speeded_trial147_bus.wav,1,a,peeded,147,bus,-1,correct,NA,Apr 26 2023 22:14:34,Radhika,1
5baa7,5baa7_session1_lista_speeded_trial148_lung.wav,1,a,peeded,148,lung,793,correct,NA,Apr 26 2023 22:15:07,Radhika,1
5baa7,5baa7_session1_lista_speeded_trial149_bracelet.wav,1,a,peeded,149,bracelet,-1,disfluency,NA,Apr 26 2023 22:15:20,Radhika,1
5baa7,5baa7_session1_lista_speeded_trial150_shoe.wav,1,a,peeded,150,shoe,680,correct,NA,Apr 26 2023 22:15:53,Radhika,1
