Participant_ID,File_Name,Session,List,Type_Trial,Trial_Nbr,Target,RT,Response_Trial,Comment,Date_Correction,Assessor_Name,Processed
5664b,5664b_session1_lista_speeded_trial001_robot.wav,1,a,peeded,1,robot,1194,correct,NA,May  1 2023 10:38:06,Agnieszka,1
5664b,5664b_session1_lista_speeded_trial002_tambourine.wav,1,a,peeded,2,tambourine,731,correct,NA,May  1 2023 10:38:15,Agnieszka,1
5664b,5664b_session1_lista_speeded_trial003_compass.wav,1,a,peeded,3,compass,741,correct,NA,May  1 2023 10:38:37,Agnieszka,1
5664b,5664b_session1_lista_speeded_trial004_onion.wav,1,a,peeded,4,onion,727,correct,NA,May  1 2023 10:38:43,Agnieszka,1
5664b,5664b_session1_lista_speeded_trial005_flower.wav,1,a,peeded,5,flower,694,correct,NA,May  1 2023 10:38:58,Agnieszka,1
5664b,5664b_session1_lista_speeded_trial006_bike.wav,1,a,peeded,6,bike,635,correct,NA,May  1 2023 10:39:05,Agnieszka,1
5664b,5664b_session1_lista_speeded_trial007_doughnut.wav,1,a,peeded,7,doughnut,687,correct,NA,May  1 2023 10:39:11,Agnieszka,1
5664b,5664b_session1_lista_speeded_trial008_dress.wav,1,a,peeded,8,dress,658,correct,NA,May  1 2023 10:39:50,Agnieszka,1
5664b,5664b_session1_lista_speeded_trial009_curtain.wav,1,a,peeded,9,curtain,828,correct,NA,May  1 2023 10:40:03,Agnieszka,1
5664b,5664b_session1_lista_speeded_trial010_wheelbarrow.wav,1,a,peeded,10,wheelbarrow,849,correct,NA,May  1 2023 10:40:17,Agnieszka,1
5664b,5664b_session1_lista_speeded_trial011_tomato.wav,1,a,peeded,11,tomato,-1,uncertain,"mato" seems like "to" wasn't said or recorded,May  1 2023 10:41:34,Agnieszka,1
5664b,5664b_session1_lista_speeded_trial012_drawer.wav,1,a,peeded,12,drawer,-1,wrong_word,NA,May  1 2023 10:41:43,Agnieszka,1
5664b,5664b_session1_lista_speeded_trial013_pineapple.wav,1,a,peeded,13,pineapple,1282,correct,NA,May  1 2023 10:41:49,Agnieszka,1
5664b,5664b_session1_lista_speeded_trial014_flag.wav,1,a,peeded,14,flag,789,correct,NA,May  1 2023 10:41:59,Agnieszka,1
5664b,5664b_session1_lista_speeded_trial015_rose.wav,1,a,peeded,15,rose,800,correct,NA,May  1 2023 10:42:17,Agnieszka,1
5664b,5664b_session1_lista_speeded_trial016_fork.wav,1,a,peeded,16,fork,912,correct,NA,May  1 2023 10:42:31,Agnieszka,1
5664b,5664b_session1_lista_speeded_trial017_mouth.wav,1,a,peeded,17,mouth,674,correct,NA,May  1 2023 10:42:37,Agnieszka,1
5664b,5664b_session1_lista_speeded_trial018_teacher.wav,1,a,peeded,18,teacher,1067,correct,NA,May  1 2023 10:42:51,Agnieszka,1
5664b,5664b_session1_lista_speeded_trial019_nest.wav,1,a,peeded,19,nest,1242,correct,NA,May  1 2023 10:43:08,Agnieszka,1
5664b,5664b_session1_lista_speeded_trial020_kangaroo.wav,1,a,peeded,20,kangaroo,829,correct,NA,May  1 2023 10:43:24,Agnieszka,1
5664b,5664b_session1_lista_speeded_trial021_mountain.wav,1,a,peeded,21,mountain,723,correct,NA,May  1 2023 10:43:30,Agnieszka,1
5664b,5664b_session1_lista_speeded_trial022_computer.wav,1,a,peeded,22,computer,764,correct,NA,May  1 2023 10:43:43,Agnieszka,1
5664b,5664b_session1_lista_speeded_trial023_rhino.wav,1,a,peeded,23,rhino,1093,correct,NA,May  1 2023 10:43:52,Agnieszka,1
5664b,5664b_session1_lista_speeded_trial024_tunnel.wav,1,a,peeded,24,tunnel,-1,wrong_word,NA,May  1 2023 10:43:58,Agnieszka,1
5664b,5664b_session1_lista_speeded_trial025_crab.wav,1,a,peeded,25,crab,746,correct,NA,May  1 2023 10:44:12,Agnieszka,1
5664b,5664b_session1_lista_speeded_trial026_bus.wav,1,a,peeded,26,bus,688,correct,NA,May  1 2023 10:44:32,Agnieszka,1
5664b,5664b_session1_lista_speeded_trial027_mermaid.wav,1,a,peeded,27,mermaid,1106,correct,NA,May  1 2023 10:44:47,Agnieszka,1
5664b,5664b_session1_lista_speeded_trial028_carrot.wav,1,a,peeded,28,carrot,802,correct,NA,May  1 2023 10:44:58,Agnieszka,1
5664b,5664b_session1_lista_speeded_trial029_elbow.wav,1,a,peeded,29,elbow,1093,correct,NA,May  1 2023 10:45:03,Agnieszka,1
5664b,5664b_session1_lista_speeded_trial030_tongue.wav,1,a,peeded,30,tongue,890,correct,NA,May  1 2023 10:45:09,Agnieszka,1
5664b,5664b_session1_lista_speeded_trial031_bench.wav,1,a,peeded,31,bench,-1,disfluency,NA,May  1 2023 10:45:28,Agnieszka,1
5664b,5664b_session1_lista_speeded_trial032_beak.wav,1,a,peeded,32,beak,810,correct,NA,May  1 2023 10:45:34,Agnieszka,1
5664b,5664b_session1_lista_speeded_trial033_plumber.wav,1,a,peeded,33,plumber,810,correct,NA,May  1 2023 10:45:40,Agnieszka,1
5664b,5664b_session1_lista_speeded_trial034_snake.wav,1,a,peeded,34,snake,694,correct,NA,May  1 2023 10:45:51,Agnieszka,1
5664b,5664b_session1_lista_speeded_trial035_tap.wav,1,a,peeded,35,tap,1027,correct,NA,May  1 2023 10:47:50,Agnieszka,1
5664b,5664b_session1_lista_speeded_trial036_bone.wav,1,a,peeded,36,bone,1247,correct,NA,May  1 2023 10:47:57,Agnieszka,1
5664b,5664b_session1_lista_speeded_trial037_fridge.wav,1,a,peeded,37,fridge,1079,correct,NA,May  1 2023 10:49:02,Agnieszka,1
5664b,5664b_session1_lista_speeded_trial038_whale.wav,1,a,peeded,38,whale,1194,correct,NA,May  1 2023 10:49:11,Agnieszka,1
5664b,5664b_session1_lista_speeded_trial039_net.wav,1,a,peeded,39,net,1154,correct,NA,May  1 2023 10:49:19,Agnieszka,1
5664b,5664b_session1_lista_speeded_trial040_arm.wav,1,a,peeded,40,arm,1357,correct,NA,May  1 2023 10:49:25,Agnieszka,1
5664b,5664b_session1_lista_speeded_trial041_fox.wav,1,a,peeded,41,fox,-1,no_resp,NA,May  1 2023 10:49:31,Agnieszka,1
5664b,5664b_session1_lista_speeded_trial042_clown.wav,1,a,peeded,42,clown,757,correct,NA,May  1 2023 10:50:04,Agnieszka,1
5664b,5664b_session1_lista_speeded_trial043_windmill.wav,1,a,peeded,43,windmill,996,correct,NA,May  1 2023 10:50:14,Agnieszka,1
5664b,5664b_session1_lista_speeded_trial044_doctor.wav,1,a,peeded,44,doctor,921,correct,NA,May  1 2023 10:51:16,Agnieszka,1
5664b,5664b_session1_lista_speeded_trial045_hat.wav,1,a,peeded,45,hat,782,correct,NA,May  1 2023 10:51:24,Agnieszka,1
5664b,5664b_session1_lista_speeded_trial046_caterpillar.wav,1,a,peeded,46,caterpillar,730,correct,NA,May  1 2023 10:51:40,Agnieszka,1
5664b,5664b_session1_lista_speeded_trial047_tractor.wav,1,a,peeded,47,tractor,1132,correct,NA,May  1 2023 10:51:45,Agnieszka,1
5664b,5664b_session1_lista_speeded_trial048_pear.wav,1,a,peeded,48,pear,1361,correct,NA,May  1 2023 10:51:50,Agnieszka,1
5664b,5664b_session1_lista_speeded_trial049_fireplace.wav,1,a,peeded,49,fireplace,-1,uncertain,cut off after "fi",May  1 2023 10:52:24,Agnieszka,1
5664b,5664b_session1_lista_speeded_trial050_kite.wav,1,a,peeded,50,kite,1242,uncertain,starts with previous word,May  1 2023 10:53:15,Agnieszka,1
5664b,5664b_session1_lista_speeded_trial051_suit.wav,1,a,peeded,51,suit,970,correct,NA,May  1 2023 10:53:38,Agnieszka,1
5664b,5664b_session1_lista_speeded_trial052_avocado.wav,1,a,peeded,52,avocado,1018,correct,NA,May  1 2023 10:53:44,Agnieszka,1
5664b,5664b_session1_lista_speeded_trial053_lighthouse.wav,1,a,peeded,53,lighthouse,1233,correct,NA,May  1 2023 10:53:53,Agnieszka,1
5664b,5664b_session1_lista_speeded_trial054_dummy.wav,1,a,peeded,54,dummy,1049,correct,NA,May  1 2023 10:53:58,Agnieszka,1
5664b,5664b_session1_lista_speeded_trial055_peg.wav,1,a,peeded,55,peg,1063,correct,NA,May  1 2023 10:54:10,Agnieszka,1
5664b,5664b_session1_lista_speeded_trial056_potato.wav,1,a,peeded,56,potato,-1,uncertain,NA,May  1 2023 10:54:38,Agnieszka,1
5664b,5664b_session1_lista_speeded_trial057_rocket.wav,1,a,peeded,57,rocket,881,correct,NA,May  1 2023 10:54:43,Agnieszka,1
5664b,5664b_session1_lista_speeded_trial058_owl.wav,1,a,peeded,58,owl,-1,uncertain,cut off early on,May  1 2023 10:54:58,Agnieszka,1
5664b,5664b_session1_lista_speeded_trial059_donkey.wav,1,a,peeded,59,donkey,953,correct,NA,May  1 2023 10:55:11,Agnieszka,1
5664b,5664b_session1_lista_speeded_trial060_scissors.wav,1,a,peeded,60,scissors,739,correct,NA,May  1 2023 10:55:24,Agnieszka,1
5664b,5664b_session1_lista_speeded_trial061_bear.wav,1,a,peeded,61,bear,952,correct,NA,May  1 2023 10:55:53,Agnieszka,1
5664b,5664b_session1_lista_speeded_trial062_lighter.wav,1,a,peeded,62,lighter,1159,correct,NA,May  1 2023 10:56:01,Agnieszka,1
5664b,5664b_session1_lista_speeded_trial063_ear.wav,1,a,peeded,63,ear,1313,correct,NA,May  1 2023 10:56:06,Agnieszka,1
5664b,5664b_session1_lista_speeded_trial064_bib.wav,1,a,peeded,64,bib,1220,correct,NA,May  1 2023 10:56:10,Agnieszka,1
5664b,5664b_session1_lista_speeded_trial065_sword.wav,1,a,peeded,65,sword,827,correct,NA,May  1 2023 10:56:23,Agnieszka,1
5664b,5664b_session1_lista_speeded_trial066_flipper.wav,1,a,peeded,66,flipper,-1,no_resp,NA,May  1 2023 10:56:34,Agnieszka,1
5664b,5664b_session1_lista_speeded_trial067_island.wav,1,a,peeded,67,island,-1,no_resp,NA,May  1 2023 10:56:39,Agnieszka,1
5664b,5664b_session1_lista_speeded_trial068_wave.wav,1,a,peeded,68,wave,-1,uncertain,"a wave"?,May  1 2023 10:57:16,Agnieszka,1
5664b,5664b_session1_lista_speeded_trial069_sun.wav,1,a,peeded,69,sun,694,correct,NA,May  1 2023 10:57:26,Agnieszka,1
5664b,5664b_session1_lista_speeded_trial070_pipe.wav,1,a,peeded,70,pipe,1335,correct,NA,May  1 2023 10:57:31,Agnieszka,1
5664b,5664b_session1_lista_speeded_trial071_kitchen.wav,1,a,peeded,71,kitchen,1376,correct,NA,May  1 2023 10:57:41,Agnieszka,1
5664b,5664b_session1_lista_speeded_trial072_olive.wav,1,a,peeded,72,olive,-1,no_resp,NA,May  1 2023 10:57:46,Agnieszka,1
5664b,5664b_session1_lista_speeded_trial073_tiger.wav,1,a,peeded,73,tiger,721,correct,NA,May  1 2023 10:57:55,Agnieszka,1
5664b,5664b_session1_lista_speeded_trial074_circle.wav,1,a,peeded,74,circle,-1,no_resp,NA,May  1 2023 10:57:58,Agnieszka,1
5664b,5664b_session1_lista_speeded_trial075_wall.wav,1,a,peeded,75,wall,-1,no_resp,NA,May  1 2023 10:58:03,Agnieszka,1
5664b,5664b_session1_lista_speeded_trial076_arrow.wav,1,a,peeded,76,arrow,760,correct,NA,May  1 2023 10:58:11,Agnieszka,1
5664b,5664b_session1_lista_speeded_trial077_sweet.wav,1,a,peeded,77,sweet,692,correct,NA,May  1 2023 10:59:00,Agnieszka,1
5664b,5664b_session1_lista_speeded_trial078_pencil.wav,1,a,peeded,78,pencil,741,correct,NA,May  1 2023 10:59:16,Agnieszka,1
5664b,5664b_session1_lista_speeded_trial079_lung.wav,1,a,peeded,79,lung,986,correct,NA,May  1 2023 10:59:32,Agnieszka,1
5664b,5664b_session1_lista_speeded_trial080_tray.wav,1,a,peeded,80,tray,908,correct,NA,May  1 2023 10:59:42,Agnieszka,1
5664b,5664b_session1_lista_speeded_trial081_train.wav,1,a,peeded,81,train,-1,disfluency,NA,May  1 2023 10:59:51,Agnieszka,1
5664b,5664b_session1_lista_speeded_trial082_apple.wav,1,a,peeded,82,apple,881,correct,NA,May  1 2023 11:00:15,Agnieszka,1
5664b,5664b_session1_lista_speeded_trial083_koala.wav,1,a,peeded,83,koala,885,correct,NA,May  1 2023 11:00:35,Agnieszka,1
5664b,5664b_session1_lista_speeded_trial084_drum.wav,1,a,peeded,84,drum,777,correct,NA,May  1 2023 11:00:49,Agnieszka,1
5664b,5664b_session1_lista_speeded_trial085_queen.wav,1,a,peeded,85,queen,1000,correct,NA,May  1 2023 11:01:50,Agnieszka,1
5664b,5664b_session1_lista_speeded_trial086_shoe.wav,1,a,peeded,86,shoe,787,correct,NA,May  1 2023 11:02:01,Agnieszka,1
5664b,5664b_session1_lista_speeded_trial087_cherry.wav,1,a,peeded,87,cherry,1002,correct,NA,May  1 2023 11:02:10,Agnieszka,1
5664b,5664b_session1_lista_speeded_trial088_medal.wav,1,a,peeded,88,medal,930,correct,NA,May  1 2023 11:02:18,Agnieszka,1
5664b,5664b_session1_lista_speeded_trial089_battery.wav,1,a,peeded,89,battery,916,correct,NA,May  1 2023 11:02:29,Agnieszka,1
5664b,5664b_session1_lista_speeded_trial090_bull.wav,1,a,peeded,90,bull,1036,correct,NA,May  1 2023 11:02:41,Agnieszka,1
5664b,5664b_session1_lista_speeded_trial091_bell.wav,1,a,peeded,91,bell,1280,correct,NA,May  1 2023 11:02:51,Agnieszka,1
5664b,5664b_session1_lista_speeded_trial092_boxer.wav,1,a,peeded,92,boxer,-1,no_resp,NA,May  1 2023 11:02:56,Agnieszka,1
5664b,5664b_session1_lista_speeded_trial093_soap.wav,1,a,peeded,93,soap,-1,no_resp,NA,May  1 2023 11:03:03,Agnieszka,1
5664b,5664b_session1_lista_speeded_trial094_pocket.wav,1,a,peeded,94,pocket,1397,correct,NA,May  1 2023 11:03:08,Agnieszka,1
5664b,5664b_session1_lista_speeded_trial095_ghost.wav,1,a,peeded,95,ghost,974,correct,NA,May  1 2023 11:03:19,Agnieszka,1
5664b,5664b_session1_lista_speeded_trial096_skirt.wav,1,a,peeded,96,skirt,-1,no_resp,NA,May  1 2023 11:03:26,Agnieszka,1
5664b,5664b_session1_lista_speeded_trial097_wing.wav,1,a,peeded,97,wing,890,correct,NA,May  1 2023 11:03:34,Agnieszka,1
5664b,5664b_session1_lista_speeded_trial098_butterfly.wav,1,a,peeded,98,butterfly,706,correct,NA,May  1 2023 11:04:08,Agnieszka,1
5664b,5664b_session1_lista_speeded_trial099_book.wav,1,a,peeded,99,book,804,correct,NA,May  1 2023 11:04:20,Agnieszka,1
5664b,5664b_session1_lista_speeded_trial100_fence.wav,1,a,peeded,100,fence,855,correct,NA,May  1 2023 11:04:29,Agnieszka,1
5664b,5664b_session1_lista_speeded_trial101_bottle.wav,1,a,peeded,101,bottle,760,correct,NA,May  1 2023 11:04:38,Agnieszka,1
5664b,5664b_session1_lista_speeded_trial102_thumb.wav,1,a,peeded,102,thumb,833,correct,NA,May  1 2023 11:04:47,Agnieszka,1
5664b,5664b_session1_lista_speeded_trial103_shower.wav,1,a,peeded,103,shower,910,correct,NA,May  1 2023 11:04:56,Agnieszka,1
5664b,5664b_session1_lista_speeded_trial104_bullet.wav,1,a,peeded,104,bullet,1450,correct,NA,May  1 2023 11:05:01,Agnieszka,1
5664b,5664b_session1_lista_speeded_trial105_orange.wav,1,a,peeded,105,orange,1282,correct,NA,May  1 2023 11:05:05,Agnieszka,1
5664b,5664b_session1_lista_speeded_trial106_lamp.wav,1,a,peeded,106,lamp,1049,correct,NA,May  1 2023 11:05:12,Agnieszka,1
5664b,5664b_session1_lista_speeded_trial107_submarine.wav,1,a,peeded,107,submarine,-1,no_resp,NA,May  1 2023 11:05:15,Agnieszka,1
5664b,5664b_session1_lista_speeded_trial108_magnet.wav,1,a,peeded,108,magnet,-1,no_resp,NA,May  1 2023 11:05:21,Agnieszka,1
5664b,5664b_session1_lista_speeded_trial109_pepper.wav,1,a,peeded,109,pepper,1494,correct,NA,May  1 2023 11:05:29,Agnieszka,1
5664b,5664b_session1_lista_speeded_trial110_cork.wav,1,a,peeded,110,cork,-1,no_resp,NA,May  1 2023 11:05:35,Agnieszka,1
5664b,5664b_session1_lista_speeded_trial111_swan.wav,1,a,peeded,111,swan,1092,correct,NA,May  1 2023 11:05:44,Agnieszka,1
5664b,5664b_session1_lista_speeded_trial112_saw.wav,1,a,peeded,112,saw,1296,correct,NA,May  1 2023 11:05:53,Agnieszka,1
5664b,5664b_session1_lista_speeded_trial113_knife.wav,1,a,peeded,113,knife,1062,correct,NA,May  1 2023 11:05:59,Agnieszka,1
5664b,5664b_session1_lista_speeded_trial114_helicopter.wav,1,a,peeded,114,helicopter,917,correct,NA,May  1 2023 11:06:07,Agnieszka,1
5664b,5664b_session1_lista_speeded_trial115_glove.wav,1,a,peeded,115,glove,872,correct,NA,May  1 2023 11:06:15,Agnieszka,1
5664b,5664b_session1_lista_speeded_trial116_camel.wav,1,a,peeded,116,camel,809,correct,NA,May  1 2023 11:06:23,Agnieszka,1
5664b,5664b_session1_lista_speeded_trial117_goat.wav,1,a,peeded,117,goat,934,correct,NA,May  1 2023 11:06:28,Agnieszka,1
5664b,5664b_session1_lista_speeded_trial118_hippo.wav,1,a,peeded,118,hippo,937,correct,NA,May  1 2023 11:06:37,Agnieszka,1
5664b,5664b_session1_lista_speeded_trial119_heel.wav,1,a,peeded,119,heel,991,correct,NA,May  1 2023 11:07:06,Agnieszka,1
5664b,5664b_session1_lista_speeded_trial120_kiwi.wav,1,a,peeded,120,kiwi,1146,correct,NA,May  1 2023 11:07:14,Agnieszka,1
5664b,5664b_session1_lista_speeded_trial121_limo.wav,1,a,peeded,121,limo,1093,correct,NA,May  1 2023 11:07:20,Agnieszka,1
5664b,5664b_session1_lista_speeded_trial122_star.wav,1,a,peeded,122,star,934,correct,NA,May  1 2023 11:07:29,Agnieszka,1
5664b,5664b_session1_lista_speeded_trial123_basket.wav,1,a,peeded,123,basket,1017,correct,NA,May  1 2023 11:07:39,Agnieszka,1
5664b,5664b_session1_lista_speeded_trial124_ruler.wav,1,a,peeded,124,ruler,935,correct,NA,May  1 2023 11:07:51,Agnieszka,1
5664b,5664b_session1_lista_speeded_trial125_castle.wav,1,a,peeded,125,castle,1057,correct,NA,May  1 2023 11:07:56,Agnieszka,1
5664b,5664b_session1_lista_speeded_trial126_zip.wav,1,a,peeded,126,zip,1275,uncertain,sounds like "ship" to me,May  1 2023 11:08:25,Agnieszka,1
5664b,5664b_session1_lista_speeded_trial127_squirrel.wav,1,a,peeded,127,squirrel,1275,correct,NA,May  1 2023 11:08:38,Agnieszka,1
5664b,5664b_session1_lista_speeded_trial128_tree.wav,1,a,peeded,128,tree,1121,correct,NA,May  1 2023 11:09:48,Agnieszka,1
5664b,5664b_session1_lista_speeded_trial129_coat.wav,1,a,peeded,129,coat,901,correct,NA,May  1 2023 11:09:58,Agnieszka,1
5664b,5664b_session1_lista_speeded_trial130_candle.wav,1,a,peeded,130,candle,1049,correct,NA,May  1 2023 11:10:05,Agnieszka,1
5664b,5664b_session1_lista_speeded_trial131_key.wav,1,a,peeded,131,key,1049,correct,NA,May  1 2023 11:10:09,Agnieszka,1
5664b,5664b_session1_lista_speeded_trial132_lawnmower.wav,1,a,peeded,132,lawnmower,-1,no_resp,NA,May  1 2023 11:10:14,Agnieszka,1
5664b,5664b_session1_lista_speeded_trial133_bracelet.wav,1,a,peeded,133,bracelet,1091,correct,NA,May  1 2023 11:10:27,Agnieszka,1
5664b,5664b_session1_lista_speeded_trial134_dice.wav,1,a,peeded,134,dice,846,correct,NA,May  1 2023 11:10:32,Agnieszka,1
5664b,5664b_session1_lista_speeded_trial135_comb.wav,1,a,peeded,135,comb,983,correct,NA,May  1 2023 11:10:37,Agnieszka,1
5664b,5664b_session1_lista_speeded_trial136_fairy.wav,1,a,peeded,136,fairy,986,correct,NA,May  1 2023 11:11:11,Agnieszka,1
5664b,5664b_session1_lista_speeded_trial137_zebra.wav,1,a,peeded,137,zebra,973,correct,NA,May  1 2023 11:11:43,Agnieszka,1
5664b,5664b_session1_lista_speeded_trial138_tattoo.wav,1,a,peeded,138,tattoo,-1,uncertain,cut off early on,May  1 2023 11:11:58,Agnieszka,1
5664b,5664b_session1_lista_speeded_trial139_rabbit.wav,1,a,peeded,139,rabbit,1304,correct,NA,May  1 2023 11:12:05,Agnieszka,1
5664b,5664b_session1_lista_speeded_trial140_tie.wav,1,a,peeded,140,tie,939,correct,NA,May  1 2023 11:12:16,Agnieszka,1
5664b,5664b_session1_lista_speeded_trial141_sausage.wav,1,a,peeded,141,sausage,804,correct,NA,May  1 2023 11:12:23,Agnieszka,1
5664b,5664b_session1_lista_speeded_trial142_triangle.wav,1,a,peeded,142,triangle,840,correct,NA,May  1 2023 11:12:30,Agnieszka,1
5664b,5664b_session1_lista_speeded_trial143_butter.wav,1,a,peeded,143,butter,-1,wrong_word,NA,May  1 2023 11:12:35,Agnieszka,1
5664b,5664b_session1_lista_speeded_trial144_jellyfish.wav,1,a,peeded,144,jellyfish,-1,no_resp,NA,May  1 2023 11:12:40,Agnieszka,1
5664b,5664b_session1_lista_speeded_trial145_suitcase.wav,1,a,peeded,145,suitcase,-1,wrong_word,NA,May  1 2023 11:12:50,Agnieszka,1
5664b,5664b_session1_lista_speeded_trial146_gym.wav,1,a,peeded,146,gym,1229,correct,NA,May  1 2023 11:12:55,Agnieszka,1
5664b,5664b_session1_lista_speeded_trial147_judge.wav,1,a,peeded,147,judge,-1,wrong_word,NA,May  1 2023 11:13:00,Agnieszka,1
5664b,5664b_session1_lista_speeded_trial148_puppet.wav,1,a,peeded,148,puppet,-1,no_resp,NA,May  1 2023 11:13:05,Agnieszka,1
5664b,5664b_session1_lista_speeded_trial149_map.wav,1,a,peeded,149,map,791,correct,NA,May  1 2023 11:13:14,Agnieszka,1
5664b,5664b_session1_lista_speeded_trial150_shield.wav,1,a,peeded,150,shield,1053,correct,NA,May  1 2023 11:13:23,Agnieszka,1
