Participant_ID,File_Name,Session,List,Type_Trial,Trial_Nbr,Target,RT,Response_Trial,Comment,Date_Correction,Assessor_Name,Processed
60217,60217_session1_lista_speeded_trial001_star.wav,1,a,peeded,1,star,601,correct,NA,Apr 18 2023 10:30:28,Agnieszka,1
60217,60217_session1_lista_speeded_trial002_drum.wav,1,a,peeded,2,drum,603,correct,NA,Apr 18 2023 10:30:34,Agnieszka,1
60217,60217_session1_lista_speeded_trial003_pepper.wav,1,a,peeded,3,pepper,608,correct,NA,Apr 18 2023 10:30:44,Agnieszka,1
60217,60217_session1_lista_speeded_trial004_olive.wav,1,a,peeded,4,olive,663,correct,NA,Apr 18 2023 10:31:00,Agnieszka,1
60217,60217_session1_lista_speeded_trial005_bottle.wav,1,a,peeded,5,bottle,628,correct,NA,Apr 18 2023 10:31:18,Agnieszka,1
60217,60217_session1_lista_speeded_trial006_hippo.wav,1,a,peeded,6,hippo,-1,wrong_word,NA,Apr 18 2023 10:31:24,Agnieszka,1
60217,60217_session1_lista_speeded_trial007_butterfly.wav,1,a,peeded,7,butterfly,770,correct,NA,Apr 18 2023 10:32:30,Agnieszka,1
60217,60217_session1_lista_speeded_trial008_nest.wav,1,a,peeded,8,nest,800,correct,NA,Apr 18 2023 10:32:38,Agnieszka,1
60217,60217_session1_lista_speeded_trial009_shower.wav,1,a,peeded,9,shower,601,correct,NA,Apr 18 2023 10:32:47,Agnieszka,1
60217,60217_session1_lista_speeded_trial010_robot.wav,1,a,peeded,10,robot,672,correct,NA,Apr 18 2023 10:32:53,Agnieszka,1
60217,60217_session1_lista_speeded_trial011_tambourine.wav,1,a,peeded,11,tambourine,-1,no_resp,NA,Apr 18 2023 10:32:58,Agnieszka,1
60217,60217_session1_lista_speeded_trial012_doctor.wav,1,a,peeded,12,doctor,699,correct,NA,Apr 18 2023 10:33:06,Agnieszka,1
60217,60217_session1_lista_speeded_trial013_bell.wav,1,a,peeded,13,bell,731,correct,NA,Apr 18 2023 10:33:12,Agnieszka,1
60217,60217_session1_lista_speeded_trial014_lighter.wav,1,a,peeded,14,lighter,763,correct,NA,Apr 18 2023 10:33:18,Agnieszka,1
60217,60217_session1_lista_speeded_trial015_potato.wav,1,a,peeded,15,potato,616,correct,NA,Apr 18 2023 10:33:28,Agnieszka,1
60217,60217_session1_lista_speeded_trial016_knife.wav,1,a,peeded,16,knife,601,correct,NA,Apr 18 2023 10:33:35,Agnieszka,1
60217,60217_session1_lista_speeded_trial017_limo.wav,1,a,peeded,17,limo,741,correct,NA,Apr 18 2023 10:33:41,Agnieszka,1
60217,60217_session1_lista_speeded_trial018_book.wav,1,a,peeded,18,book,660,correct,NA,Apr 18 2023 10:33:47,Agnieszka,1
60217,60217_session1_lista_speeded_trial019_sword.wav,1,a,peeded,19,sword,-1,no_resp,NA,Apr 18 2023 10:33:52,Agnieszka,1
60217,60217_session1_lista_speeded_trial020_gym.wav,1,a,peeded,20,gym,891,correct,NA,Apr 18 2023 10:38:14,Agnieszka,1
60217,60217_session1_lista_speeded_trial021_computer.wav,1,a,peeded,21,computer,726,correct,NA,Apr 18 2023 10:38:26,Agnieszka,1
60217,60217_session1_lista_speeded_trial022_snake.wav,1,a,peeded,22,snake,665,correct,NA,Apr 18 2023 10:38:33,Agnieszka,1
60217,60217_session1_lista_speeded_trial023_puppet.wav,1,a,peeded,23,puppet,1102,correct,NA,Apr 18 2023 10:38:39,Agnieszka,1
60217,60217_session1_lista_speeded_trial024_tomato.wav,1,a,peeded,24,tomato,-1,wrong_word,NA,Apr 18 2023 10:38:45,Agnieszka,1
60217,60217_session1_lista_speeded_trial025_compass.wav,1,a,peeded,25,compass,850,correct,NA,Apr 18 2023 10:38:51,Agnieszka,1
60217,60217_session1_lista_speeded_trial026_fox.wav,1,a,peeded,26,fox,707,correct,NA,Apr 18 2023 10:39:01,Agnieszka,1
60217,60217_session1_lista_speeded_trial027_tiger.wav,1,a,peeded,27,tiger,591,correct,NA,Apr 18 2023 10:40:18,Agnieszka,1
60217,60217_session1_lista_speeded_trial028_pencil.wav,1,a,peeded,28,pencil,640,correct,NA,Apr 18 2023 10:40:24,Agnieszka,1
60217,60217_session1_lista_speeded_trial029_island.wav,1,a,peeded,29,island,798,correct,NA,Apr 18 2023 10:40:32,Agnieszka,1
60217,60217_session1_lista_speeded_trial030_bus.wav,1,a,peeded,30,bus,633,correct,NA,Apr 18 2023 10:40:49,Agnieszka,1
60217,60217_session1_lista_speeded_trial031_ruler.wav,1,a,peeded,31,ruler,-1,disfluency,NA,Apr 18 2023 10:41:01,Agnieszka,1
60217,60217_session1_lista_speeded_trial032_rose.wav,1,a,peeded,32,rose,650,correct,NA,Apr 18 2023 10:48:35,Agnieszka,1
60217,60217_session1_lista_speeded_trial033_whale.wav,1,a,peeded,33,whale,689,correct,NA,Apr 18 2023 10:48:41,Agnieszka,1
60217,60217_session1_lista_speeded_trial034_tie.wav,1,a,peeded,34,tie,581,correct,NA,Apr 18 2023 10:48:52,Agnieszka,1
60217,60217_session1_lista_speeded_trial035_sun.wav,1,a,peeded,35,sun,562,correct,NA,Apr 18 2023 10:49:12,Agnieszka,1
60217,60217_session1_lista_speeded_trial036_boxer.wav,1,a,peeded,36,boxer,653,correct,NA,Apr 18 2023 10:49:17,Agnieszka,1
60217,60217_session1_lista_speeded_trial037_net.wav,1,a,peeded,37,net,618,correct,NA,Apr 18 2023 10:49:27,Agnieszka,1
60217,60217_session1_lista_speeded_trial038_castle.wav,1,a,peeded,38,castle,675,correct,NA,Apr 18 2023 10:49:36,Agnieszka,1
60217,60217_session1_lista_speeded_trial039_mouth.wav,1,a,peeded,39,mouth,619,correct,NA,Apr 18 2023 10:49:44,Agnieszka,1
60217,60217_session1_lista_speeded_trial040_tree.wav,1,a,peeded,40,tree,633,correct,NA,Apr 18 2023 10:49:56,Agnieszka,1
60217,60217_session1_lista_speeded_trial041_tractor.wav,1,a,peeded,41,tractor,643,correct,NA,Apr 18 2023 10:51:15,Agnieszka,1
60217,60217_session1_lista_speeded_trial042_train.wav,1,a,peeded,42,train,734,correct,NA,Apr 18 2023 10:51:21,Agnieszka,1
60217,60217_session1_lista_speeded_trial043_kitchen.wav,1,a,peeded,43,kitchen,675,correct,NA,Apr 18 2023 10:51:28,Agnieszka,1
60217,60217_session1_lista_speeded_trial044_ear.wav,1,a,peeded,44,ear,658,correct,NA,Apr 18 2023 10:51:37,Agnieszka,1
60217,60217_session1_lista_speeded_trial045_squirrel.wav,1,a,peeded,45,squirrel,606,correct,NA,Apr 18 2023 10:51:42,Agnieszka,1
60217,60217_session1_lista_speeded_trial046_suit.wav,1,a,peeded,46,suit,817,correct,NA,Apr 18 2023 10:51:50,Agnieszka,1
60217,60217_session1_lista_speeded_trial047_butter.wav,1,a,peeded,47,butter,751,correct,NA,Apr 18 2023 10:51:56,Agnieszka,1
60217,60217_session1_lista_speeded_trial048_bike.wav,1,a,peeded,48,bike,643,correct,NA,Apr 18 2023 10:52:35,Agnieszka,1
60217,60217_session1_lista_speeded_trial049_queen.wav,1,a,peeded,49,queen,641,correct,NA,Apr 18 2023 10:52:44,Agnieszka,1
60217,60217_session1_lista_speeded_trial050_elbow.wav,1,a,peeded,50,elbow,668,correct,NA,Apr 18 2023 10:52:55,Agnieszka,1
60217,60217_session1_lista_speeded_trial051_clown.wav,1,a,peeded,51,clown,700,correct,NA,Apr 18 2023 11:03:57,Agnieszka,1
60217,60217_session1_lista_speeded_trial052_kite.wav,1,a,peeded,52,kite,800,correct,NA,Apr 18 2023 11:04:02,Agnieszka,1
60217,60217_session1_lista_speeded_trial053_orange.wav,1,a,peeded,53,orange,734,correct,NA,Apr 18 2023 11:04:14,Agnieszka,1
60217,60217_session1_lista_speeded_trial054_shield.wav,1,a,peeded,54,shield,835,correct,NA,Apr 18 2023 11:04:21,Agnieszka,1
60217,60217_session1_lista_speeded_trial055_dice.wav,1,a,peeded,55,dice,630,correct,NA,Apr 18 2023 11:04:26,Agnieszka,1
60217,60217_session1_lista_speeded_trial056_ghost.wav,1,a,peeded,56,ghost,702,correct,NA,Apr 18 2023 11:04:37,Agnieszka,1
60217,60217_session1_lista_speeded_trial057_scissors.wav,1,a,peeded,57,scissors,562,correct,NA,Apr 18 2023 11:04:45,Agnieszka,1
60217,60217_session1_lista_speeded_trial058_wall.wav,1,a,peeded,58,wall,668,correct,NA,Apr 18 2023 11:04:55,Agnieszka,1
60217,60217_session1_lista_speeded_trial059_pineapple.wav,1,a,peeded,59,pineapple,667,correct,NA,Apr 18 2023 11:05:03,Agnieszka,1
60217,60217_session1_lista_speeded_trial060_fork.wav,1,a,peeded,60,fork,-1,disfluency,NA,Apr 18 2023 11:05:12,Agnieszka,1
60217,60217_session1_lista_speeded_trial061_mermaid.wav,1,a,peeded,61,mermaid,753,correct,NA,Apr 18 2023 11:05:18,Agnieszka,1
60217,60217_session1_lista_speeded_trial062_koala.wav,1,a,peeded,62,koala,672,correct,NA,Apr 18 2023 11:05:31,Agnieszka,1
60217,60217_session1_lista_speeded_trial063_tray.wav,1,a,peeded,63,tray,732,correct,NA,Apr 18 2023 11:05:37,Agnieszka,1
60217,60217_session1_lista_speeded_trial064_zip.wav,1,a,peeded,64,zip,746,correct,NA,Apr 18 2023 11:05:43,Agnieszka,1
60217,60217_session1_lista_speeded_trial065_kangaroo.wav,1,a,peeded,65,kangaroo,909,correct,NA,Apr 18 2023 11:05:48,Agnieszka,1
60217,60217_session1_lista_speeded_trial066_candle.wav,1,a,peeded,66,candle,737,correct,NA,Apr 18 2023 11:05:54,Agnieszka,1
60217,60217_session1_lista_speeded_trial067_arm.wav,1,a,peeded,67,arm,716,correct,NA,Apr 18 2023 11:05:59,Agnieszka,1
60217,60217_session1_lista_speeded_trial068_fireplace.wav,1,a,peeded,68,fireplace,638,correct,NA,Apr 18 2023 11:06:07,Agnieszka,1
60217,60217_session1_lista_speeded_trial069_wing.wav,1,a,peeded,69,wing,805,correct,NA,Apr 18 2023 11:06:16,Agnieszka,1
60217,60217_session1_lista_speeded_trial070_onion.wav,1,a,peeded,70,onion,786,correct,NA,Apr 18 2023 11:06:24,Agnieszka,1
60217,60217_session1_lista_speeded_trial071_lamp.wav,1,a,peeded,71,lamp,812,correct,NA,Apr 18 2023 11:06:30,Agnieszka,1
60217,60217_session1_lista_speeded_trial072_dummy.wav,1,a,peeded,72,dummy,850,correct,NA,Apr 18 2023 11:06:36,Agnieszka,1
60217,60217_session1_lista_speeded_trial073_bib.wav,1,a,peeded,73,bib,753,correct,NA,Apr 18 2023 11:06:43,Agnieszka,1
60217,60217_session1_lista_speeded_trial074_flag.wav,1,a,peeded,74,flag,630,correct,NA,Apr 18 2023 11:06:56,Agnieszka,1
60217,60217_session1_lista_speeded_trial075_camel.wav,1,a,peeded,75,camel,616,correct,NA,Apr 18 2023 11:07:15,Agnieszka,1
60217,60217_session1_lista_speeded_trial076_coat.wav,1,a,peeded,76,coat,699,correct,NA,Apr 18 2023 11:07:34,Agnieszka,1
60217,60217_session1_lista_speeded_trial077_tap.wav,1,a,peeded,77,tap,687,correct,NA,Apr 18 2023 11:07:45,Agnieszka,1
60217,60217_session1_lista_speeded_trial078_dress.wav,1,a,peeded,78,dress,667,correct,NA,Apr 18 2023 11:07:50,Agnieszka,1
60217,60217_session1_lista_speeded_trial079_skirt.wav,1,a,peeded,79,skirt,761,correct,NA,Apr 18 2023 11:07:55,Agnieszka,1
60217,60217_session1_lista_speeded_trial080_owl.wav,1,a,peeded,80,owl,667,correct,NA,Apr 18 2023 11:08:02,Agnieszka,1
60217,60217_session1_lista_speeded_trial081_judge.wav,1,a,peeded,81,judge,663,correct,NA,Apr 18 2023 11:08:09,Agnieszka,1
60217,60217_session1_lista_speeded_trial082_wave.wav,1,a,peeded,82,wave,729,correct,NA,Apr 18 2023 11:08:15,Agnieszka,1
60217,60217_session1_lista_speeded_trial083_teacher.wav,1,a,peeded,83,teacher,663,correct,NA,Apr 18 2023 11:08:20,Agnieszka,1
60217,60217_session1_lista_speeded_trial084_rocket.wav,1,a,peeded,84,rocket,678,correct,NA,Apr 18 2023 11:08:25,Agnieszka,1
60217,60217_session1_lista_speeded_trial085_mountain.wav,1,a,peeded,85,mountain,898,correct,NA,Apr 18 2023 11:08:29,Agnieszka,1
60217,60217_session1_lista_speeded_trial086_plumber.wav,1,a,peeded,86,plumber,756,correct,NA,Apr 18 2023 11:08:39,Agnieszka,1
60217,60217_session1_lista_speeded_trial087_arrow.wav,1,a,peeded,87,arrow,746,correct,NA,Apr 18 2023 11:08:48,Agnieszka,1
60217,60217_session1_lista_speeded_trial088_key.wav,1,a,peeded,88,key,633,correct,NA,Apr 18 2023 11:08:54,Agnieszka,1
60217,60217_session1_lista_speeded_trial089_peg.wav,1,a,peeded,89,peg,640,correct,NA,Apr 18 2023 11:09:00,Agnieszka,1
60217,60217_session1_lista_speeded_trial090_fairy.wav,1,a,peeded,90,fairy,663,correct,NA,Apr 18 2023 11:09:05,Agnieszka,1
60217,60217_session1_lista_speeded_trial091_apple.wav,1,a,peeded,91,apple,646,correct,NA,Apr 18 2023 11:09:16,Agnieszka,1
60217,60217_session1_lista_speeded_trial092_wheelbarrow.wav,1,a,peeded,92,wheelbarrow,-1,wrong_word,NA,Apr 18 2023 11:09:25,Agnieszka,1
60217,60217_session1_lista_speeded_trial093_bench.wav,1,a,peeded,93,bench,-1,wrong_word,NA,Apr 18 2023 11:09:32,Agnieszka,1
60217,60217_session1_lista_speeded_trial094_map.wav,1,a,peeded,94,map,741,correct,NA,Apr 18 2023 11:09:38,Agnieszka,1
60217,60217_session1_lista_speeded_trial095_hat.wav,1,a,peeded,95,hat,783,correct,NA,Apr 18 2023 11:09:43,Agnieszka,1
60217,60217_session1_lista_speeded_trial096_tattoo.wav,1,a,peeded,96,tattoo,888,correct,NA,Apr 18 2023 11:09:48,Agnieszka,1
60217,60217_session1_lista_speeded_trial097_bullet.wav,1,a,peeded,97,bullet,962,correct,NA,Apr 18 2023 11:09:57,Agnieszka,1
60217,60217_session1_lista_speeded_trial098_zebra.wav,1,a,peeded,98,zebra,690,correct,NA,Apr 18 2023 11:10:03,Agnieszka,1
60217,60217_session1_lista_speeded_trial099_helicopter.wav,1,a,peeded,99,helicopter,731,correct,NA,Apr 18 2023 11:10:10,Agnieszka,1
60217,60217_session1_lista_speeded_trial100_heel.wav,1,a,peeded,100,heel,667,correct,NA,Apr 18 2023 11:10:19,Agnieszka,1
60217,60217_session1_lista_speeded_trial101_battery.wav,1,a,peeded,101,battery,678,correct,NA,Apr 18 2023 11:10:26,Agnieszka,1
60217,60217_session1_lista_speeded_trial102_bone.wav,1,a,peeded,102,bone,633,correct,NA,Apr 18 2023 11:10:32,Agnieszka,1
60217,60217_session1_lista_speeded_trial103_soap.wav,1,a,peeded,103,soap,641,correct,NA,Apr 18 2023 11:10:37,Agnieszka,1
60217,60217_session1_lista_speeded_trial104_carrot.wav,1,a,peeded,104,carrot,598,correct,NA,Apr 18 2023 11:10:44,Agnieszka,1
60217,60217_session1_lista_speeded_trial105_donkey.wav,1,a,peeded,105,donkey,655,correct,NA,Apr 18 2023 11:10:50,Agnieszka,1
60217,60217_session1_lista_speeded_trial106_basket.wav,1,a,peeded,106,basket,614,correct,NA,Apr 18 2023 11:10:56,Agnieszka,1
60217,60217_session1_lista_speeded_trial107_glove.wav,1,a,peeded,107,glove,749,correct,NA,Apr 18 2023 11:11:04,Agnieszka,1
60217,60217_session1_lista_speeded_trial108_lighthouse.wav,1,a,peeded,108,lighthouse,700,correct,NA,Apr 18 2023 11:11:12,Agnieszka,1
60217,60217_session1_lista_speeded_trial109_drawer.wav,1,a,peeded,109,drawer,657,correct,NA,Apr 18 2023 11:11:18,Agnieszka,1
60217,60217_session1_lista_speeded_trial110_medal.wav,1,a,peeded,110,medal,667,correct,NA,Apr 18 2023 11:11:27,Agnieszka,1
60217,60217_session1_lista_speeded_trial111_windmill.wav,1,a,peeded,111,windmill,-1,wrong_word,NA,Apr 18 2023 11:11:34,Agnieszka,1
60217,60217_session1_lista_speeded_trial112_bull.wav,1,a,peeded,112,bull,650,correct,NA,Apr 18 2023 11:11:39,Agnieszka,1
60217,60217_session1_lista_speeded_trial113_magnet.wav,1,a,peeded,113,magnet,652,correct,NA,Apr 18 2023 11:11:45,Agnieszka,1
60217,60217_session1_lista_speeded_trial114_flipper.wav,1,a,peeded,114,flipper,830,correct,NA,Apr 18 2023 11:11:59,Agnieszka,1
60217,60217_session1_lista_speeded_trial115_saw.wav,1,a,peeded,115,saw,657,correct,NA,Apr 18 2023 11:12:04,Agnieszka,1
60217,60217_session1_lista_speeded_trial116_pear.wav,1,a,peeded,116,pear,682,correct,NA,Apr 18 2023 11:12:11,Agnieszka,1
60217,60217_session1_lista_speeded_trial117_tongue.wav,1,a,peeded,117,tongue,-1,wrong_word,NA,Apr 18 2023 11:12:17,Agnieszka,1
60217,60217_session1_lista_speeded_trial118_bracelet.wav,1,a,peeded,118,bracelet,795,correct,NA,Apr 18 2023 11:12:22,Agnieszka,1
60217,60217_session1_lista_speeded_trial119_rabbit.wav,1,a,peeded,119,rabbit,589,correct,NA,Apr 18 2023 11:12:28,Agnieszka,1
60217,60217_session1_lista_speeded_trial120_fence.wav,1,a,peeded,120,fence,589,correct,NA,Apr 18 2023 11:12:40,Agnieszka,1
60217,60217_session1_lista_speeded_trial121_avocado.wav,1,a,peeded,121,avocado,756,correct,NA,Apr 18 2023 11:12:45,Agnieszka,1
60217,60217_session1_lista_speeded_trial122_crab.wav,1,a,peeded,122,crab,611,correct,NA,Apr 18 2023 11:12:50,Agnieszka,1
60217,60217_session1_lista_speeded_trial123_doughnut.wav,1,a,peeded,123,doughnut,653,correct,NA,Apr 18 2023 11:12:56,Agnieszka,1
60217,60217_session1_lista_speeded_trial124_triangle.wav,1,a,peeded,124,triangle,636,correct,NA,Apr 18 2023 11:13:03,Agnieszka,1
60217,60217_session1_lista_speeded_trial125_curtain.wav,1,a,peeded,125,curtain,658,correct,NA,Apr 18 2023 11:13:08,Agnieszka,1
60217,60217_session1_lista_speeded_trial126_suitcase.wav,1,a,peeded,126,suitcase,711,correct,NA,Apr 18 2023 11:13:14,Agnieszka,1
60217,60217_session1_lista_speeded_trial127_thumb.wav,1,a,peeded,127,thumb,678,correct,NA,Apr 18 2023 11:13:20,Agnieszka,1
60217,60217_session1_lista_speeded_trial128_circle.wav,1,a,peeded,128,circle,-1,no_resp,NA,Apr 18 2023 11:13:24,Agnieszka,1
60217,60217_session1_lista_speeded_trial129_fridge.wav,1,a,peeded,129,fridge,714,correct,NA,Apr 18 2023 11:13:32,Agnieszka,1
60217,60217_session1_lista_speeded_trial130_caterpillar.wav,1,a,peeded,130,caterpillar,658,correct,NA,Apr 18 2023 11:13:42,Agnieszka,1
60217,60217_session1_lista_speeded_trial131_sausage.wav,1,a,peeded,131,sausage,618,correct,NA,Apr 18 2023 11:13:47,Agnieszka,1
60217,60217_session1_lista_speeded_trial132_tunnel.wav,1,a,peeded,132,tunnel,673,correct,NA,Apr 18 2023 11:13:53,Agnieszka,1
60217,60217_session1_lista_speeded_trial133_submarine.wav,1,a,peeded,133,submarine,840,correct,NA,Apr 18 2023 11:13:58,Agnieszka,1
60217,60217_session1_lista_speeded_trial134_bear.wav,1,a,peeded,134,bear,619,correct,NA,Apr 18 2023 11:14:04,Agnieszka,1
60217,60217_session1_lista_speeded_trial135_swan.wav,1,a,peeded,135,swan,606,correct,NA,Apr 18 2023 11:14:09,Agnieszka,1
60217,60217_session1_lista_speeded_trial136_pipe.wav,1,a,peeded,136,pipe,-1,no_resp,NA,Apr 18 2023 11:14:14,Agnieszka,1
60217,60217_session1_lista_speeded_trial137_pocket.wav,1,a,peeded,137,pocket,802,correct,NA,Apr 18 2023 11:14:22,Agnieszka,1
60217,60217_session1_lista_speeded_trial138_beak.wav,1,a,peeded,138,beak,-1,no_resp,NA,Apr 18 2023 11:14:26,Agnieszka,1
60217,60217_session1_lista_speeded_trial139_comb.wav,1,a,peeded,139,comb,699,correct,NA,Apr 18 2023 11:14:32,Agnieszka,1
60217,60217_session1_lista_speeded_trial140_rhino.wav,1,a,peeded,140,rhino,631,correct,NA,Apr 18 2023 11:14:39,Agnieszka,1
60217,60217_session1_lista_speeded_trial141_jellyfish.wav,1,a,peeded,141,jellyfish,726,correct,NA,Apr 18 2023 11:14:45,Agnieszka,1
60217,60217_session1_lista_speeded_trial142_cork.wav,1,a,peeded,142,cork,759,correct,NA,Apr 18 2023 11:14:51,Agnieszka,1
60217,60217_session1_lista_speeded_trial143_lawnmower.wav,1,a,peeded,143,lawnmower,766,correct,NA,Apr 18 2023 11:14:56,Agnieszka,1
60217,60217_session1_lista_speeded_trial144_sweet.wav,1,a,peeded,144,sweet,589,correct,NA,Apr 18 2023 11:15:01,Agnieszka,1
60217,60217_session1_lista_speeded_trial145_kiwi.wav,1,a,peeded,145,kiwi,660,correct,NA,Apr 18 2023 11:15:09,Agnieszka,1
60217,60217_session1_lista_speeded_trial146_shoe.wav,1,a,peeded,146,shoe,652,correct,NA,Apr 18 2023 11:15:15,Agnieszka,1
60217,60217_session1_lista_speeded_trial147_goat.wav,1,a,peeded,147,goat,665,correct,NA,Apr 18 2023 11:15:20,Agnieszka,1
60217,60217_session1_lista_speeded_trial148_lung.wav,1,a,peeded,148,lung,1200,correct,NA,Apr 18 2023 11:15:26,Agnieszka,1
60217,60217_session1_lista_speeded_trial149_flower.wav,1,a,peeded,149,flower,798,correct,NA,Apr 18 2023 11:15:36,Agnieszka,1
60217,60217_session1_lista_speeded_trial150_cherry.wav,1,a,peeded,150,cherry,712,correct,NA,Apr 18 2023 11:15:42,Agnieszka,1
