Participant_ID,File_Name,Session,List,Type_Trial,Trial_Nbr,Target,RT,Response_Trial,Comment,Date_Correction,Assessor_Name,Processed
6026b,6026b_session2_listb_naming_trial001_heart.wav,2,b,naming,1,heart,656,correct,NA,May  2 2023 14:04:18,Agnieszka,1
6026b,6026b_session2_listb_naming_trial002_girl.wav,2,b,naming,2,girl,738,correct,NA,May  2 2023 14:04:38,Agnieszka,1
6026b,6026b_session2_listb_naming_trial003_scarecrow.wav,2,b,naming,3,scarecrow,721,correct,NA,May  2 2023 14:04:47,Agnieszka,1
6026b,6026b_session2_listb_naming_trial004_sink.wav,2,b,naming,4,sink,672,correct,NA,May  2 2023 14:04:54,Agnieszka,1
6026b,6026b_session2_listb_naming_trial005_dog.wav,2,b,naming,5,dog,724,correct,NA,May  2 2023 14:05:00,Agnieszka,1
6026b,6026b_session2_listb_naming_trial006_ankle.wav,2,b,naming,6,ankle,999,correct,NA,May  2 2023 14:05:05,Agnieszka,1
6026b,6026b_session2_listb_naming_trial007_leaf.wav,2,b,naming,7,leaf,683,correct,NA,May  2 2023 14:05:11,Agnieszka,1
6026b,6026b_session2_listb_naming_trial008_maze.wav,2,b,naming,8,maze,708,correct,NA,May  2 2023 14:05:18,Agnieszka,1
6026b,6026b_session2_listb_naming_trial009_moustache.wav,2,b,naming,9,moustache,766,correct,NA,May  2 2023 14:05:24,Agnieszka,1
6026b,6026b_session2_listb_naming_trial010_lizard.wav,2,b,naming,10,lizard,766,correct,NA,May  2 2023 14:05:31,Agnieszka,1
6026b,6026b_session2_listb_naming_trial011_nun.wav,2,b,naming,11,nun,1392,correct,NA,May  2 2023 14:05:54,Agnieszka,1
6026b,6026b_session2_listb_naming_trial012_house.wav,2,b,naming,12,house,698,correct,NA,May  2 2023 14:06:00,Agnieszka,1
6026b,6026b_session2_listb_naming_trial013_brain.wav,2,b,naming,13,brain,741,correct,NA,May  2 2023 14:06:07,Agnieszka,1
6026b,6026b_session2_listb_naming_trial014_banana.wav,2,b,naming,14,banana,724,correct,NA,May  2 2023 14:06:12,Agnieszka,1
6026b,6026b_session2_listb_naming_trial015_dinosaur.wav,2,b,naming,15,dinosaur,1124,correct,NA,May  2 2023 14:06:19,Agnieszka,1
6026b,6026b_session2_listb_naming_trial016_devil.wav,2,b,naming,16,devil,1177,correct,NA,May  2 2023 14:06:43,Agnieszka,1
6026b,6026b_session2_listb_naming_trial017_roof.wav,2,b,naming,17,roof,857,correct,NA,May  2 2023 14:06:52,Agnieszka,1
6026b,6026b_session2_listb_naming_trial018_finger.wav,2,b,naming,18,finger,697,correct,NA,May  2 2023 14:06:59,Agnieszka,1
6026b,6026b_session2_listb_naming_trial019_ambulance.wav,2,b,naming,19,ambulance,966,correct,NA,May  2 2023 14:07:05,Agnieszka,1
6026b,6026b_session2_listb_naming_trial020_hand.wav,2,b,naming,20,hand,674,correct,NA,May  2 2023 14:07:11,Agnieszka,1
6026b,6026b_session2_listb_naming_trial021_pumpkin.wav,2,b,naming,21,pumpkin,714,correct,NA,May  2 2023 14:07:31,Agnieszka,1
6026b,6026b_session2_listb_naming_trial022_football.wav,2,b,naming,22,football,724,correct,NA,May  2 2023 14:07:45,Agnieszka,1
6026b,6026b_session2_listb_naming_trial023_bed.wav,2,b,naming,23,bed,874,correct,NA,May  2 2023 14:07:50,Agnieszka,1
6026b,6026b_session2_listb_naming_trial024_jar.wav,2,b,naming,24,jar,691,correct,NA,May  2 2023 14:07:55,Agnieszka,1
6026b,6026b_session2_listb_naming_trial025_needle.wav,2,b,naming,25,needle,1199,correct,NA,May  2 2023 14:08:03,Agnieszka,1
6026b,6026b_session2_listb_naming_trial026_farm.wav,2,b,naming,26,farm,820,correct,NA,May  2 2023 14:08:20,Agnieszka,1
6026b,6026b_session2_listb_naming_trial027_skull.wav,2,b,naming,27,skull,-1,wrong_word,NA,May  2 2023 14:08:26,Agnieszka,1
6026b,6026b_session2_listb_naming_trial028_television.wav,2,b,naming,28,television,949,correct,NA,May  2 2023 14:08:32,Agnieszka,1
6026b,6026b_session2_listb_naming_trial029_pool.wav,2,b,naming,29,pool,791,correct,NA,May  2 2023 14:08:39,Agnieszka,1
6026b,6026b_session2_listb_naming_trial030_tooth.wav,2,b,naming,30,tooth,741,correct,NA,May  2 2023 14:08:44,Agnieszka,1
6026b,6026b_session2_listb_naming_trial031_chain.wav,2,b,naming,31,chain,841,correct,NA,May  2 2023 14:08:53,Agnieszka,1
6026b,6026b_session2_listb_naming_trial032_spoon.wav,2,b,naming,32,spoon,591,correct,NA,May  2 2023 14:09:49,Agnieszka,1
6026b,6026b_session2_listb_naming_trial033_bat.wav,2,b,naming,33,bat,674,correct,NA,May  2 2023 14:09:58,Agnieszka,1
6026b,6026b_session2_listb_naming_trial034_nose.wav,2,b,naming,34,nose,633,correct,NA,May  2 2023 14:10:09,Agnieszka,1
6026b,6026b_session2_listb_naming_trial035_cloud.wav,2,b,naming,35,cloud,1004,correct,NA,May  2 2023 14:10:24,Agnieszka,1
6026b,6026b_session2_listb_naming_trial036_caravan.wav,2,b,naming,36,caravan,1164,correct,NA,May  2 2023 14:10:35,Agnieszka,1
6026b,6026b_session2_listb_naming_trial037_boomerang.wav,2,b,naming,37,boomerang,991,correct,NA,May  2 2023 14:10:41,Agnieszka,1
6026b,6026b_session2_listb_naming_trial038_penguin.wav,2,b,naming,38,penguin,832,correct,NA,May  2 2023 14:10:48,Agnieszka,1
6026b,6026b_session2_listb_naming_trial039_mirror.wav,2,b,naming,39,mirror,733,correct,NA,May  2 2023 14:10:58,Agnieszka,1
6026b,6026b_session2_listb_naming_trial040_shirt.wav,2,b,naming,40,shirt,782,correct,NA,May  2 2023 14:11:05,Agnieszka,1
6026b,6026b_session2_listb_naming_trial041_witch.wav,2,b,naming,41,witch,824,correct,NA,May  2 2023 14:11:12,Agnieszka,1
6026b,6026b_session2_listb_naming_trial042_sock.wav,2,b,naming,42,sock,708,correct,NA,May  2 2023 14:11:19,Agnieszka,1
6026b,6026b_session2_listb_naming_trial043_hedgehog.wav,2,b,naming,43,hedgehog,999,correct,NA,May  2 2023 14:14:51,Agnieszka,1
6026b,6026b_session2_listb_naming_trial044_burger.wav,2,b,naming,44,burger,749,correct,NA,May  2 2023 14:14:56,Agnieszka,1
6026b,6026b_session2_listb_naming_trial045_waiter.wav,2,b,naming,45,waiter,891,correct,NA,May  2 2023 14:15:01,Agnieszka,1
6026b,6026b_session2_listb_naming_trial046_cactus.wav,2,b,naming,46,cactus,807,correct,NA,May  2 2023 14:15:08,Agnieszka,1
6026b,6026b_session2_listb_naming_trial047_vein.wav,2,b,naming,47,vein,1032,correct,NA,May  2 2023 14:15:13,Agnieszka,1
6026b,6026b_session2_listb_naming_trial048_cigarette.wav,2,b,naming,48,cigarette,782,correct,NA,May  2 2023 14:15:19,Agnieszka,1
6026b,6026b_session2_listb_naming_trial049_sheep.wav,2,b,naming,49,sheep,699,correct,NA,May  2 2023 14:15:29,Agnieszka,1
6026b,6026b_session2_listb_naming_trial050_shark.wav,2,b,naming,50,shark,684,correct,NA,May  2 2023 14:15:47,Agnieszka,1
6026b,6026b_session2_listb_naming_trial051_bedroom.wav,2,b,naming,51,bedroom,832,correct,NA,May  2 2023 14:16:14,Agnieszka,1
6026b,6026b_session2_listb_naming_trial052_airport.wav,2,b,naming,52,airport,999,correct,NA,May  2 2023 14:16:19,Agnieszka,1
6026b,6026b_session2_listb_naming_trial053_broom.wav,2,b,naming,53,broom,1007,correct,NA,May  2 2023 14:16:26,Agnieszka,1
6026b,6026b_session2_listb_naming_trial054_balloon.wav,2,b,naming,54,balloon,724,correct,NA,May  2 2023 14:16:32,Agnieszka,1
6026b,6026b_session2_listb_naming_trial055_man.wav,2,b,naming,55,man,1199,correct,NA,May  2 2023 14:16:37,Agnieszka,1
6026b,6026b_session2_listb_naming_trial056_honey.wav,2,b,naming,56,honey,832,correct,NA,May  2 2023 14:16:43,Agnieszka,1
6026b,6026b_session2_listb_naming_trial057_road.wav,2,b,naming,57,road,841,correct,NA,May  2 2023 14:16:49,Agnieszka,1
6026b,6026b_session2_listb_naming_trial058_asparagus.wav,2,b,naming,58,asparagus,1681,correct,NA,May  2 2023 14:16:54,Agnieszka,1
6026b,6026b_session2_listb_naming_trial059_stapler.wav,2,b,naming,59,stapler,782,correct,NA,May  2 2023 14:17:37,Agnieszka,1
6026b,6026b_session2_listb_naming_trial060_door.wav,2,b,naming,60,door,691,correct,NA,May  2 2023 14:17:42,Agnieszka,1
6026b,6026b_session2_listb_naming_trial061_face.wav,2,b,naming,61,face,733,correct,NA,May  2 2023 14:17:48,Agnieszka,1
6026b,6026b_session2_listb_naming_trial062_parachute.wav,2,b,naming,62,parachute,1631,correct,NA,May  2 2023 14:17:54,Agnieszka,1
6026b,6026b_session2_listb_naming_trial063_cone.wav,2,b,naming,63,cone,674,correct,NA,May  2 2023 14:18:00,Agnieszka,1
6026b,6026b_session2_listb_naming_trial064_umbrella.wav,2,b,naming,64,umbrella,699,correct,NA,May  2 2023 14:18:10,Agnieszka,1
6026b,6026b_session2_listb_naming_trial065_camera.wav,2,b,naming,65,camera,799,correct,NA,May  2 2023 14:18:15,Agnieszka,1
6026b,6026b_session2_listb_naming_trial066_nurse.wav,2,b,naming,66,nurse,1057,correct,NA,May  2 2023 14:18:21,Agnieszka,1
6026b,6026b_session2_listb_naming_trial067_king.wav,2,b,naming,67,king,716,correct,NA,May  2 2023 14:18:27,Agnieszka,1
6026b,6026b_session2_listb_naming_trial068_scarf.wav,2,b,naming,68,scarf,830,correct,NA,May  2 2023 14:18:42,Agnieszka,1
6026b,6026b_session2_listb_naming_trial069_calendar.wav,2,b,naming,69,calendar,866,correct,NA,May  2 2023 14:19:02,Agnieszka,1
6026b,6026b_session2_listb_naming_trial070_handle.wav,2,b,naming,70,handle,957,correct,NA,May  2 2023 14:19:12,Agnieszka,1
6026b,6026b_session2_listb_naming_trial071_telephone.wav,2,b,naming,71,telephone,749,correct,NA,May  2 2023 14:19:18,Agnieszka,1
6026b,6026b_session2_listb_naming_trial072_lab.wav,2,b,naming,72,lab,-1,wrong_word,NA,May  2 2023 14:19:23,Agnieszka,1
6026b,6026b_session2_listb_naming_trial073_scorpion.wav,2,b,naming,73,scorpion,749,correct,NA,May  2 2023 14:19:30,Agnieszka,1
6026b,6026b_session2_listb_naming_trial074_egg.wav,2,b,naming,74,egg,749,correct,NA,May  2 2023 14:19:36,Agnieszka,1
6026b,6026b_session2_listb_naming_trial075_earring.wav,2,b,naming,75,earring,1074,correct,NA,May  2 2023 14:19:43,Agnieszka,1
6026b,6026b_session2_listb_naming_trial076_bra.wav,2,b,naming,76,bra,708,correct,NA,May  2 2023 14:19:48,Agnieszka,1
6026b,6026b_session2_listb_naming_trial077_coconut.wav,2,b,naming,77,coconut,724,correct,NA,May  2 2023 14:19:55,Agnieszka,1
6026b,6026b_session2_listb_naming_trial078_pizza.wav,2,b,naming,78,pizza,649,correct,NA,May  2 2023 14:20:01,Agnieszka,1
6026b,6026b_session2_listb_naming_trial079_fist.wav,2,b,naming,79,fist,716,correct,NA,May  2 2023 14:20:16,Agnieszka,1
6026b,6026b_session2_listb_naming_trial080_lemon.wav,2,b,naming,80,lemon,924,correct,NA,May  2 2023 14:20:23,Agnieszka,1
6026b,6026b_session2_listb_naming_trial081_button.wav,2,b,naming,81,button,766,correct,NA,May  2 2023 14:20:29,Agnieszka,1
6026b,6026b_session2_listb_naming_trial082_condom.wav,2,b,naming,82,condom,-1,no_resp,NA,May  2 2023 14:20:36,Agnieszka,1
6026b,6026b_session2_listb_naming_trial083_fire.wav,2,b,naming,83,fire,1168,correct,NA,May  2 2023 14:20:58,Agnieszka,1
6026b,6026b_session2_listb_naming_trial084_spider.wav,2,b,naming,84,spider,891,correct,NA,May  2 2023 14:21:05,Agnieszka,1
6026b,6026b_session2_listb_naming_trial085_broccoli.wav,2,b,naming,85,broccoli,816,correct,NA,May  2 2023 14:21:11,Agnieszka,1
6026b,6026b_session2_listb_naming_trial086_volcano.wav,2,b,naming,86,volcano,1357,correct,NA,May  2 2023 14:21:17,Agnieszka,1
6026b,6026b_session2_listb_naming_trial087_swimming.wav,2,b,naming,87,swimming,-1,wrong_word,NA,May  2 2023 14:21:22,Agnieszka,1
6026b,6026b_session2_listb_naming_trial088_crown.wav,2,b,naming,88,crown,-1,wrong_word,NA,May  2 2023 14:21:27,Agnieszka,1
6026b,6026b_session2_listb_naming_trial089_bin.wav,2,b,naming,89,bin,799,correct,NA,May  2 2023 14:21:32,Agnieszka,1
6026b,6026b_session2_listb_naming_trial090_ring.wav,2,b,naming,90,ring,724,correct,NA,May  2 2023 14:21:42,Agnieszka,1
6026b,6026b_session2_listb_naming_trial091_cage.wav,2,b,naming,91,cage,1090,correct,NA,May  2 2023 14:21:48,Agnieszka,1
6026b,6026b_session2_listb_naming_trial092_printer.wav,2,b,naming,92,printer,1065,correct,NA,May  2 2023 14:22:00,Agnieszka,1
6026b,6026b_session2_listb_naming_trial093_thermometer.wav,2,b,naming,93,thermometer,1315,correct,NA,May  2 2023 14:22:11,Agnieszka,1
6026b,6026b_session2_listb_naming_trial094_elephant.wav,2,b,naming,94,elephant,1182,correct,NA,May  2 2023 14:22:17,Agnieszka,1
6026b,6026b_session2_listb_naming_trial095_giraffe.wav,2,b,naming,95,giraffe,1074,correct,NA,May  2 2023 14:22:23,Agnieszka,1
6026b,6026b_session2_listb_naming_trial096_greenhouse.wav,2,b,naming,96,greenhouse,1590,correct,NA,May  2 2023 14:22:29,Agnieszka,1
6026b,6026b_session2_listb_naming_trial097_foot.wav,2,b,naming,97,foot,1149,correct,NA,May  2 2023 14:22:52,Agnieszka,1
6026b,6026b_session2_listb_naming_trial098_diamond.wav,2,b,naming,98,diamond,807,correct,NA,May  2 2023 14:23:09,Agnieszka,1
6026b,6026b_session2_listb_naming_trial099_calculator.wav,2,b,naming,99,calculator,966,correct,NA,May  2 2023 14:23:15,Agnieszka,1
6026b,6026b_session2_listb_naming_trial100_trumpet.wav,2,b,naming,100,trumpet,758,correct,NA,May  2 2023 14:23:20,Agnieszka,1
6026b,6026b_session2_listb_naming_trial101_cannon.wav,2,b,naming,101,cannon,941,correct,NA,May  2 2023 14:23:26,Agnieszka,1
6026b,6026b_session2_listb_naming_trial102_microphone.wav,2,b,naming,102,microphone,766,correct,NA,May  2 2023 14:23:36,Agnieszka,1
6026b,6026b_session2_listb_naming_trial103_skateboard.wav,2,b,naming,103,skateboard,716,correct,NA,May  2 2023 14:23:43,Agnieszka,1
6026b,6026b_session2_listb_naming_trial104_beard.wav,2,b,naming,104,beard,899,correct,NA,May  2 2023 14:23:49,Agnieszka,1
6026b,6026b_session2_listb_naming_trial105_choir.wav,2,b,naming,105,choir,782,correct,NA,May  2 2023 14:23:54,Agnieszka,1
6026b,6026b_session2_listb_naming_trial106_guitar.wav,2,b,naming,106,guitar,2239,correct,NA,May  2 2023 14:24:00,Agnieszka,1
6026b,6026b_session2_listb_naming_trial107_feather.wav,2,b,naming,107,feather,754,correct,NA,May  2 2023 14:24:27,Agnieszka,1
6026b,6026b_session2_listb_naming_trial108_dragon.wav,2,b,naming,108,dragon,874,correct,NA,May  2 2023 14:24:48,Agnieszka,1
6026b,6026b_session2_listb_naming_trial109_baby.wav,2,b,naming,109,baby,758,correct,NA,May  2 2023 14:24:55,Agnieszka,1
6026b,6026b_session2_listb_naming_trial110_car.wav,2,b,naming,110,car,716,correct,NA,May  2 2023 14:25:02,Agnieszka,1
6026b,6026b_session2_listb_naming_trial111_cowboy.wav,2,b,naming,111,cowboy,1449,correct,NA,May  2 2023 14:25:21,Agnieszka,1
6026b,6026b_session2_listb_naming_trial112_butcher.wav,2,b,naming,112,butcher,974,correct,NA,May  2 2023 14:25:27,Agnieszka,1
6026b,6026b_session2_listb_naming_trial113_well.wav,2,b,naming,113,well,1257,correct,NA,May  2 2023 14:25:33,Agnieszka,1
6026b,6026b_session2_listb_naming_trial114_keyboard.wav,2,b,naming,114,keyboard,907,correct,NA,May  2 2023 14:25:40,Agnieszka,1
6026b,6026b_session2_listb_naming_trial115_tank.wav,2,b,naming,115,tank,-1,no_resp,NA,May  2 2023 14:25:45,Agnieszka,1
6026b,6026b_session2_listb_naming_trial116_mask.wav,2,b,naming,116,mask,1082,correct,NA,May  2 2023 14:25:51,Agnieszka,1
6026b,6026b_session2_listb_naming_trial117_parrot.wav,2,b,naming,117,parrot,782,correct,NA,May  2 2023 14:25:57,Agnieszka,1
6026b,6026b_session2_listb_naming_trial118_screwdriver.wav,2,b,naming,118,screwdriver,785,correct,NA,May  2 2023 14:26:15,Agnieszka,1
6026b,6026b_session2_listb_naming_trial119_snail.wav,2,b,naming,119,snail,683,correct,NA,May  2 2023 14:26:23,Agnieszka,1
6026b,6026b_session2_listb_naming_trial120_skeleton.wav,2,b,naming,120,skeleton,1032,correct,NA,May  2 2023 14:26:29,Agnieszka,1
6026b,6026b_session2_listb_naming_trial121_strawberry.wav,2,b,naming,121,strawberry,791,correct,NA,May  2 2023 14:26:34,Agnieszka,1
6026b,6026b_session2_listb_naming_trial122_belt.wav,2,b,naming,122,belt,799,correct,NA,May  2 2023 14:26:39,Agnieszka,1
6026b,6026b_session2_listb_naming_trial123_back.wav,2,b,naming,123,back,826,correct,NA,May  2 2023 14:26:57,Agnieszka,1
6026b,6026b_session2_listb_naming_trial124_dolphin.wav,2,b,naming,124,dolphin,699,correct,NA,May  2 2023 14:27:03,Agnieszka,1
6026b,6026b_session2_listb_naming_trial125_pirate.wav,2,b,naming,125,pirate,1090,correct,NA,May  2 2023 14:27:08,Agnieszka,1
6026b,6026b_session2_listb_naming_trial126_hair.wav,2,b,naming,126,hair,633,correct,NA,May  2 2023 14:27:24,Agnieszka,1
6026b,6026b_session2_listb_naming_trial127_apron.wav,2,b,naming,127,apron,758,correct,NA,May  2 2023 14:27:33,Agnieszka,1
6026b,6026b_session2_listb_naming_trial128_knee.wav,2,b,naming,128,knee,782,correct,NA,May  2 2023 14:27:38,Agnieszka,1
6026b,6026b_session2_listb_naming_trial129_gun.wav,2,b,naming,129,gun,782,correct,NA,May  2 2023 14:27:44,Agnieszka,1
6026b,6026b_session2_listb_naming_trial130_fruit.wav,2,b,naming,130,fruit,807,correct,NA,May  2 2023 14:27:51,Agnieszka,1
6026b,6026b_session2_listb_naming_trial131_eye.wav,2,b,naming,131,eye,716,correct,NA,May  2 2023 14:27:56,Agnieszka,1
6026b,6026b_session2_listb_naming_trial132_coffin.wav,2,b,naming,132,coffin,799,correct,NA,May  2 2023 14:28:02,Agnieszka,1
6026b,6026b_session2_listb_naming_trial133_desert.wav,2,b,naming,133,desert,1432,correct,NA,May  2 2023 14:28:07,Agnieszka,1
6026b,6026b_session2_listb_naming_trial134_chair.wav,2,b,naming,134,chair,691,correct,NA,May  2 2023 14:28:13,Agnieszka,1
6026b,6026b_session2_listb_naming_trial135_glasses.wav,2,b,naming,135,glasses,782,correct,NA,May  2 2023 14:28:19,Agnieszka,1
6026b,6026b_session2_listb_naming_trial136_torch.wav,2,b,naming,136,torch,774,correct,NA,May  2 2023 14:28:26,Agnieszka,1
6026b,6026b_session2_listb_naming_trial137_glass.wav,2,b,naming,137,glass,741,correct,NA,May  2 2023 14:28:31,Agnieszka,1
6026b,6026b_session2_listb_naming_trial138_frog.wav,2,b,naming,138,frog,716,correct,NA,May  2 2023 14:28:42,Agnieszka,1
6026b,6026b_session2_listb_naming_trial139_coffee.wav,2,b,naming,139,coffee,874,correct,NA,May  2 2023 14:28:47,Agnieszka,1
6026b,6026b_session2_listb_naming_trial140_duck.wav,2,b,naming,140,duck,724,correct,NA,May  2 2023 14:28:53,Agnieszka,1
6026b,6026b_session2_listb_naming_trial141_fan.wav,2,b,naming,141,fan,658,correct,NA,May  2 2023 14:28:58,Agnieszka,1
6026b,6026b_session2_listb_naming_trial142_lion.wav,2,b,naming,142,lion,691,correct,NA,May  2 2023 14:29:05,Agnieszka,1
6026b,6026b_session2_listb_naming_trial143_bible.wav,2,b,naming,143,bible,766,correct,NA,May  2 2023 14:29:10,Agnieszka,1
6026b,6026b_session2_listb_naming_trial144_pilot.wav,2,b,naming,144,pilot,1132,correct,NA,May  2 2023 14:29:15,Agnieszka,1
6026b,6026b_session2_listb_naming_trial145_harp.wav,2,b,naming,145,harp,-1,no_resp,NA,May  2 2023 14:29:21,Agnieszka,1
6026b,6026b_session2_listb_naming_trial146_iron.wav,2,b,naming,146,iron,758,correct,NA,May  2 2023 14:29:27,Agnieszka,1
6026b,6026b_session2_listb_naming_trial147_shadow.wav,2,b,naming,147,shadow,1690,correct,NA,May  2 2023 14:29:40,Agnieszka,1
6026b,6026b_session2_listb_naming_trial148_dentist.wav,2,b,naming,148,dentist,1090,correct,NA,May  2 2023 14:29:46,Agnieszka,1
6026b,6026b_session2_listb_naming_trial149_wallet.wav,2,b,naming,149,wallet,991,correct,NA,May  2 2023 14:29:52,Agnieszka,1
6026b,6026b_session2_listb_naming_trial150_watch.wav,2,b,naming,150,watch,641,correct,NA,May  2 2023 14:29:58,Agnieszka,1
