Participant_ID,File_Name,Session,List,Type_Trial,Trial_Nbr,Target,RT,Response_Trial,Comment,Date_Correction,Assessor_Name,Processed
60dca,60dca_session2_listb_naming_trial001_beard.wav,2,b,naming,1,beard,922,correct,NA,Apr 18 2023 09:26:47,Agnieszka,1
60dca,60dca_session2_listb_naming_trial002_elephant.wav,2,b,naming,2,elephant,1288,correct,NA,Apr 18 2023 09:26:56,Agnieszka,1
60dca,60dca_session2_listb_naming_trial003_dentist.wav,2,b,naming,3,dentist,-1,wrong_word,NA,Apr 18 2023 09:27:02,Agnieszka,1
60dca,60dca_session2_listb_naming_trial004_pilot.wav,2,b,naming,4,pilot,1202,correct,NA,Apr 18 2023 09:27:11,Agnieszka,1
60dca,60dca_session2_listb_naming_trial005_boomerang.wav,2,b,naming,5,boomerang,912,correct,NA,Apr 18 2023 09:27:17,Agnieszka,1
60dca,60dca_session2_listb_naming_trial006_shark.wav,2,b,naming,6,shark,807,correct,NA,Apr 18 2023 09:27:26,Agnieszka,1
60dca,60dca_session2_listb_naming_trial007_feather.wav,2,b,naming,7,feather,880,correct,NA,Apr 18 2023 09:27:34,Agnieszka,1
60dca,60dca_session2_listb_naming_trial008_ring.wav,2,b,naming,8,ring,982,correct,NA,Apr 18 2023 09:28:34,Agnieszka,1
60dca,60dca_session2_listb_naming_trial009_scarf.wav,2,b,naming,9,scarf,957,correct,NA,Apr 18 2023 09:28:42,Agnieszka,1
60dca,60dca_session2_listb_naming_trial010_maze.wav,2,b,naming,10,maze,938,correct,NA,Apr 18 2023 09:28:50,Agnieszka,1
60dca,60dca_session2_listb_naming_trial011_chain.wav,2,b,naming,11,chain,1008,correct,NA,Apr 18 2023 09:29:15,Agnieszka,1
60dca,60dca_session2_listb_naming_trial012_face.wav,2,b,naming,12,face,778,correct,NA,Apr 18 2023 09:29:25,Agnieszka,1
60dca,60dca_session2_listb_naming_trial013_coffin.wav,2,b,naming,13,coffin,966,correct,NA,Apr 18 2023 09:29:32,Agnieszka,1
60dca,60dca_session2_listb_naming_trial014_cloud.wav,2,b,naming,14,cloud,906,correct,NA,Apr 18 2023 09:29:43,Agnieszka,1
60dca,60dca_session2_listb_naming_trial015_vein.wav,2,b,naming,15,vein,1049,correct,NA,Apr 18 2023 09:29:51,Agnieszka,1
60dca,60dca_session2_listb_naming_trial016_broccoli.wav,2,b,naming,16,broccoli,992,correct,NA,Apr 18 2023 09:30:00,Agnieszka,1
60dca,60dca_session2_listb_naming_trial017_crown.wav,2,b,naming,17,crown,1202,correct,NA,Apr 18 2023 09:30:08,Agnieszka,1
60dca,60dca_session2_listb_naming_trial018_tooth.wav,2,b,naming,18,tooth,985,correct,NA,Apr 18 2023 09:30:29,Agnieszka,1
60dca,60dca_session2_listb_naming_trial019_back.wav,2,b,naming,19,back,1132,correct,NA,Apr 18 2023 09:30:36,Agnieszka,1
60dca,60dca_session2_listb_naming_trial020_scorpion.wav,2,b,naming,20,scorpion,1049,correct,NA,Apr 18 2023 09:30:43,Agnieszka,1
60dca,60dca_session2_listb_naming_trial021_apron.wav,2,b,naming,21,apron,1078,correct,NA,Apr 18 2023 09:31:04,Agnieszka,1
60dca,60dca_session2_listb_naming_trial022_swimming.wav,2,b,naming,22,swimming,-1,wrong_word,NA,Apr 18 2023 09:31:09,Agnieszka,1
60dca,60dca_session2_listb_naming_trial023_butcher.wav,2,b,naming,23,butcher,1145,correct,NA,Apr 18 2023 09:31:16,Agnieszka,1
60dca,60dca_session2_listb_naming_trial024_finger.wav,2,b,naming,24,finger,893,correct,NA,Apr 18 2023 09:31:26,Agnieszka,1
60dca,60dca_session2_listb_naming_trial025_jar.wav,2,b,naming,25,jar,944,correct,NA,Apr 18 2023 09:31:34,Agnieszka,1
60dca,60dca_session2_listb_naming_trial026_waiter.wav,2,b,naming,26,waiter,1393,correct,NA,Apr 18 2023 09:31:42,Agnieszka,1
60dca,60dca_session2_listb_naming_trial027_witch.wav,2,b,naming,27,witch,1011,correct,NA,Apr 18 2023 09:31:49,Agnieszka,1
60dca,60dca_session2_listb_naming_trial028_lemon.wav,2,b,naming,28,lemon,810,correct,NA,Apr 18 2023 09:31:55,Agnieszka,1
60dca,60dca_session2_listb_naming_trial029_trumpet.wav,2,b,naming,29,trumpet,848,correct,NA,Apr 18 2023 09:32:02,Agnieszka,1
60dca,60dca_session2_listb_naming_trial030_pirate.wav,2,b,naming,30,pirate,1361,correct,NA,Apr 18 2023 09:32:09,Agnieszka,1
60dca,60dca_session2_listb_naming_trial031_girl.wav,2,b,naming,31,girl,1269,correct,NA,Apr 18 2023 09:32:17,Agnieszka,1
60dca,60dca_session2_listb_naming_trial032_fist.wav,2,b,naming,32,fist,855,correct,NA,Apr 18 2023 09:32:28,Agnieszka,1
60dca,60dca_session2_listb_naming_trial033_honey.wav,2,b,naming,33,honey,1024,correct,NA,Apr 18 2023 09:32:40,Agnieszka,1
60dca,60dca_session2_listb_naming_trial034_gun.wav,2,b,naming,34,gun,1004,correct,NA,Apr 18 2023 09:32:52,Agnieszka,1
60dca,60dca_session2_listb_naming_trial035_eye.wav,2,b,naming,35,eye,810,correct,NA,Apr 18 2023 09:33:02,Agnieszka,1
60dca,60dca_session2_listb_naming_trial036_sink.wav,2,b,naming,36,sink,731,correct,NA,Apr 18 2023 09:33:14,Agnieszka,1
60dca,60dca_session2_listb_naming_trial037_house.wav,2,b,naming,37,house,1122,correct,NA,Apr 18 2023 09:33:23,Agnieszka,1
60dca,60dca_session2_listb_naming_trial038_handle.wav,2,b,naming,38,handle,1234,correct,NA,Apr 18 2023 09:33:29,Agnieszka,1
60dca,60dca_session2_listb_naming_trial039_giraffe.wav,2,b,naming,39,giraffe,950,correct,NA,Apr 18 2023 09:33:43,Agnieszka,1
60dca,60dca_session2_listb_naming_trial040_pizza.wav,2,b,naming,40,pizza,826,correct,NA,Apr 18 2023 09:33:52,Agnieszka,1
60dca,60dca_session2_listb_naming_trial041_brain.wav,2,b,naming,41,brain,858,correct,NA,Apr 18 2023 09:34:03,Agnieszka,1
60dca,60dca_session2_listb_naming_trial042_bat.wav,2,b,naming,42,bat,944,correct,NA,Apr 18 2023 09:34:15,Agnieszka,1
60dca,60dca_session2_listb_naming_trial043_harp.wav,2,b,naming,43,harp,810,correct,NA,Apr 18 2023 09:34:25,Agnieszka,1
60dca,60dca_session2_listb_naming_trial044_bra.wav,2,b,naming,44,bra,839,correct,NA,Apr 18 2023 09:34:33,Agnieszka,1
60dca,60dca_session2_listb_naming_trial045_lion.wav,2,b,naming,45,lion,858,correct,NA,Apr 18 2023 09:34:48,Agnieszka,1
60dca,60dca_session2_listb_naming_trial046_skateboard.wav,2,b,naming,46,skateboard,762,correct,NA,Apr 18 2023 09:34:54,Agnieszka,1
60dca,60dca_session2_listb_naming_trial047_roof.wav,2,b,naming,47,roof,1434,correct,NA,Apr 18 2023 09:35:01,Agnieszka,1
60dca,60dca_session2_listb_naming_trial048_microphone.wav,2,b,naming,48,microphone,1087,correct,NA,Apr 18 2023 09:35:11,Agnieszka,1
60dca,60dca_session2_listb_naming_trial049_bible.wav,2,b,naming,49,bible,941,correct,NA,Apr 18 2023 09:35:18,Agnieszka,1
60dca,60dca_session2_listb_naming_trial050_asparagus.wav,2,b,naming,50,asparagus,1071,correct,NA,Apr 18 2023 09:35:36,Agnieszka,1
60dca,60dca_session2_listb_naming_trial051_cannon.wav,2,b,naming,51,cannon,966,correct,NA,Apr 18 2023 09:35:45,Agnieszka,1
60dca,60dca_session2_listb_naming_trial052_ambulance.wav,2,b,naming,52,ambulance,810,correct,NA,Apr 18 2023 09:35:53,Agnieszka,1
60dca,60dca_session2_listb_naming_trial053_camera.wav,2,b,naming,53,camera,871,correct,NA,Apr 18 2023 09:36:03,Agnieszka,1
60dca,60dca_session2_listb_naming_trial054_needle.wav,2,b,naming,54,needle,1256,correct,NA,Apr 18 2023 09:36:12,Agnieszka,1
60dca,60dca_session2_listb_naming_trial055_bedroom.wav,2,b,naming,55,bedroom,2132,correct,NA,Apr 18 2023 09:36:23,Agnieszka,1
60dca,60dca_session2_listb_naming_trial056_diamond.wav,2,b,naming,56,diamond,1342,correct,NA,Apr 18 2023 09:36:32,Agnieszka,1
60dca,60dca_session2_listb_naming_trial057_dog.wav,2,b,naming,57,dog,1001,correct,NA,Apr 18 2023 09:36:46,Agnieszka,1
60dca,60dca_session2_listb_naming_trial058_penguin.wav,2,b,naming,58,penguin,1122,correct,NA,Apr 18 2023 09:36:58,Agnieszka,1
60dca,60dca_session2_listb_naming_trial059_heart.wav,2,b,naming,59,heart,661,correct,NA,Apr 18 2023 09:37:07,Agnieszka,1
60dca,60dca_session2_listb_naming_trial060_stapler.wav,2,b,naming,60,stapler,-1,wrong_word,NA,Apr 18 2023 09:37:16,Agnieszka,1
60dca,60dca_session2_listb_naming_trial061_pumpkin.wav,2,b,naming,61,pumpkin,1272,correct,NA,Apr 18 2023 09:37:26,Agnieszka,1
60dca,60dca_session2_listb_naming_trial062_fan.wav,2,b,naming,62,fan,957,correct,NA,Apr 18 2023 09:37:35,Agnieszka,1
60dca,60dca_session2_listb_naming_trial063_banana.wav,2,b,naming,63,banana,756,correct,NA,Apr 18 2023 09:42:26,Agnieszka,1
60dca,60dca_session2_listb_naming_trial064_duck.wav,2,b,naming,64,duck,883,correct,NA,Apr 18 2023 09:42:33,Agnieszka,1
60dca,60dca_session2_listb_naming_trial065_football.wav,2,b,naming,65,football,715,correct,NA,Apr 18 2023 09:42:40,Agnieszka,1
60dca,60dca_session2_listb_naming_trial066_ankle.wav,2,b,naming,66,ankle,1001,correct,NA,Apr 18 2023 09:42:47,Agnieszka,1
60dca,60dca_session2_listb_naming_trial067_earring.wav,2,b,naming,67,earring,1348,correct,NA,Apr 18 2023 09:42:55,Agnieszka,1
60dca,60dca_session2_listb_naming_trial068_cactus.wav,2,b,naming,68,cactus,1052,correct,NA,Apr 18 2023 09:43:04,Agnieszka,1
60dca,60dca_session2_listb_naming_trial069_lizard.wav,2,b,naming,69,lizard,1256,correct,NA,Apr 18 2023 09:43:10,Agnieszka,1
60dca,60dca_session2_listb_naming_trial070_fire.wav,2,b,naming,70,fire,839,correct,NA,Apr 18 2023 09:43:19,Agnieszka,1
60dca,60dca_session2_listb_naming_trial071_leaf.wav,2,b,naming,71,leaf,1170,correct,NA,Apr 18 2023 09:43:26,Agnieszka,1
60dca,60dca_session2_listb_naming_trial072_coconut.wav,2,b,naming,72,coconut,896,correct,NA,Apr 18 2023 09:43:33,Agnieszka,1
60dca,60dca_session2_listb_naming_trial073_umbrella.wav,2,b,naming,73,umbrella,903,correct,NA,Apr 18 2023 09:43:40,Agnieszka,1
60dca,60dca_session2_listb_naming_trial074_greenhouse.wav,2,b,naming,74,greenhouse,1043,correct,NA,Apr 18 2023 09:44:07,Agnieszka,1
60dca,60dca_session2_listb_naming_trial075_mask.wav,2,b,naming,75,mask,1059,correct,NA,Apr 18 2023 09:44:15,Agnieszka,1
60dca,60dca_session2_listb_naming_trial076_wallet.wav,2,b,naming,76,wallet,992,correct,NA,Apr 18 2023 09:44:22,Agnieszka,1
60dca,60dca_session2_listb_naming_trial077_coffee.wav,2,b,naming,77,coffee,1132,correct,NA,Apr 18 2023 09:44:29,Agnieszka,1
60dca,60dca_session2_listb_naming_trial078_parrot.wav,2,b,naming,78,parrot,848,correct,NA,Apr 18 2023 09:44:36,Agnieszka,1
60dca,60dca_session2_listb_naming_trial079_fruit.wav,2,b,naming,79,fruit,1014,correct,NA,Apr 18 2023 09:44:45,Agnieszka,1
60dca,60dca_session2_listb_naming_trial080_lab.wav,2,b,naming,80,lab,1122,correct,NA,Apr 18 2023 09:44:53,Agnieszka,1
60dca,60dca_session2_listb_naming_trial081_door.wav,2,b,naming,81,door,1036,correct,NA,Apr 18 2023 09:45:00,Agnieszka,1
60dca,60dca_session2_listb_naming_trial082_watch.wav,2,b,naming,82,watch,852,correct,NA,Apr 18 2023 09:45:07,Agnieszka,1
60dca,60dca_session2_listb_naming_trial083_bed.wav,2,b,naming,83,bed,1046,correct,NA,Apr 18 2023 09:45:14,Agnieszka,1
60dca,60dca_session2_listb_naming_trial084_iron.wav,2,b,naming,84,iron,1383,correct,NA,Apr 18 2023 09:45:22,Agnieszka,1
60dca,60dca_session2_listb_naming_trial085_devil.wav,2,b,naming,85,devil,1368,correct,NA,Apr 18 2023 09:45:33,Agnieszka,1
60dca,60dca_session2_listb_naming_trial086_desert.wav,2,b,naming,86,desert,1396,correct,NA,Apr 18 2023 09:45:52,Agnieszka,1
60dca,60dca_session2_listb_naming_trial087_dragon.wav,2,b,naming,87,dragon,1170,correct,NA,Apr 18 2023 09:46:06,Agnieszka,1
60dca,60dca_session2_listb_naming_trial088_spider.wav,2,b,naming,88,spider,797,correct,NA,Apr 18 2023 09:46:14,Agnieszka,1
60dca,60dca_session2_listb_naming_trial089_nose.wav,2,b,naming,89,nose,782,correct,NA,Apr 18 2023 09:46:22,Agnieszka,1
60dca,60dca_session2_listb_naming_trial090_sock.wav,2,b,naming,90,sock,1148,correct,NA,Apr 18 2023 09:46:28,Agnieszka,1
60dca,60dca_session2_listb_naming_trial091_strawberry.wav,2,b,naming,91,strawberry,804,correct,NA,Apr 18 2023 09:46:36,Agnieszka,1
60dca,60dca_session2_listb_naming_trial092_airport.wav,2,b,naming,92,airport,1052,correct,NA,Apr 18 2023 09:46:43,Agnieszka,1
60dca,60dca_session2_listb_naming_trial093_skull.wav,2,b,naming,93,skull,813,correct,NA,Apr 18 2023 09:46:50,Agnieszka,1
60dca,60dca_session2_listb_naming_trial094_printer.wav,2,b,naming,94,printer,1103,correct,NA,Apr 18 2023 09:47:00,Agnieszka,1
60dca,60dca_session2_listb_naming_trial095_nun.wav,2,b,naming,95,nun,-1,wrong_word,NA,Apr 18 2023 09:47:08,Agnieszka,1
60dca,60dca_session2_listb_naming_trial096_burger.wav,2,b,naming,96,burger,1081,correct,NA,Apr 18 2023 09:47:18,Agnieszka,1
60dca,60dca_session2_listb_naming_trial097_tank.wav,2,b,naming,97,tank,960,correct,NA,Apr 18 2023 09:47:29,Agnieszka,1
60dca,60dca_session2_listb_naming_trial098_volcano.wav,2,b,naming,98,volcano,1192,correct,NA,Apr 18 2023 09:47:36,Agnieszka,1
60dca,60dca_session2_listb_naming_trial099_keyboard.wav,2,b,naming,99,keyboard,1049,correct,NA,Apr 18 2023 09:47:48,Agnieszka,1
60dca,60dca_session2_listb_naming_trial100_snail.wav,2,b,naming,100,snail,788,correct,NA,Apr 18 2023 09:47:55,Agnieszka,1
60dca,60dca_session2_listb_naming_trial101_belt.wav,2,b,naming,101,belt,1119,correct,NA,Apr 18 2023 09:48:02,Agnieszka,1
60dca,60dca_session2_listb_naming_trial102_spoon.wav,2,b,naming,102,spoon,899,correct,NA,Apr 18 2023 09:48:09,Agnieszka,1
60dca,60dca_session2_listb_naming_trial103_frog.wav,2,b,naming,103,frog,807,correct,NA,Apr 18 2023 09:48:16,Agnieszka,1
60dca,60dca_session2_listb_naming_trial104_scarecrow.wav,2,b,naming,104,scarecrow,839,correct,NA,Apr 18 2023 09:48:23,Agnieszka,1
60dca,60dca_session2_listb_naming_trial105_skeleton.wav,2,b,naming,105,skeleton,1116,correct,NA,Apr 18 2023 09:48:31,Agnieszka,1
60dca,60dca_session2_listb_naming_trial106_cage.wav,2,b,naming,106,cage,947,correct,NA,Apr 18 2023 09:48:58,Agnieszka,1
60dca,60dca_session2_listb_naming_trial107_baby.wav,2,b,naming,107,baby,778,correct,NA,Apr 18 2023 09:49:05,Agnieszka,1
60dca,60dca_session2_listb_naming_trial108_glasses.wav,2,b,naming,108,glasses,782,correct,NA,Apr 18 2023 09:49:12,Agnieszka,1
60dca,60dca_session2_listb_naming_trial109_king.wav,2,b,naming,109,king,1068,correct,NA,Apr 18 2023 09:49:21,Agnieszka,1
60dca,60dca_session2_listb_naming_trial110_button.wav,2,b,naming,110,button,928,correct,NA,Apr 18 2023 09:49:29,Agnieszka,1
60dca,60dca_session2_listb_naming_trial111_glass.wav,2,b,naming,111,glass,804,correct,NA,Apr 18 2023 09:49:41,Agnieszka,1
60dca,60dca_session2_listb_naming_trial112_knee.wav,2,b,naming,112,knee,1122,correct,NA,Apr 18 2023 09:49:49,Agnieszka,1
60dca,60dca_session2_listb_naming_trial113_broom.wav,2,b,naming,113,broom,1297,correct,NA,Apr 18 2023 09:49:59,Agnieszka,1
60dca,60dca_session2_listb_naming_trial114_calendar.wav,2,b,naming,114,calendar,992,correct,NA,Apr 18 2023 09:50:06,Agnieszka,1
60dca,60dca_session2_listb_naming_trial115_choir.wav,2,b,naming,115,choir,1199,correct,NA,Apr 18 2023 09:50:18,Agnieszka,1
60dca,60dca_session2_listb_naming_trial116_sheep.wav,2,b,naming,116,sheep,992,correct,NA,Apr 18 2023 09:50:27,Agnieszka,1
60dca,60dca_session2_listb_naming_trial117_dolphin.wav,2,b,naming,117,dolphin,1011,correct,NA,Apr 18 2023 09:50:36,Agnieszka,1
60dca,60dca_session2_listb_naming_trial118_mirror.wav,2,b,naming,118,mirror,995,correct,NA,Apr 18 2023 09:50:44,Agnieszka,1
60dca,60dca_session2_listb_naming_trial119_condom.wav,2,b,naming,119,condom,915,correct,NA,Apr 18 2023 09:50:51,Agnieszka,1
60dca,60dca_session2_listb_naming_trial120_hand.wav,2,b,naming,120,hand,890,correct,NA,Apr 18 2023 09:50:58,Agnieszka,1
60dca,60dca_session2_listb_naming_trial121_hedgehog.wav,2,b,naming,121,hedgehog,740,correct,NA,Apr 18 2023 09:51:12,Agnieszka,1
60dca,60dca_session2_listb_naming_trial122_well.wav,2,b,naming,122,well,842,correct,NA,Apr 18 2023 09:51:19,Agnieszka,1
60dca,60dca_session2_listb_naming_trial123_caravan.wav,2,b,naming,123,caravan,903,correct,NA,Apr 18 2023 09:51:30,Agnieszka,1
60dca,60dca_session2_listb_naming_trial124_thermometer.wav,2,b,naming,124,thermometer,1014,correct,NA,Apr 18 2023 09:51:40,Agnieszka,1
60dca,60dca_session2_listb_naming_trial125_screwdriver.wav,2,b,naming,125,screwdriver,1071,correct,NA,Apr 18 2023 09:51:48,Agnieszka,1
60dca,60dca_session2_listb_naming_trial126_shadow.wav,2,b,naming,126,shadow,985,correct,NA,Apr 18 2023 09:51:57,Agnieszka,1
60dca,60dca_session2_listb_naming_trial127_cone.wav,2,b,naming,127,cone,1425,correct,NA,Apr 18 2023 09:52:06,Agnieszka,1
60dca,60dca_session2_listb_naming_trial128_pool.wav,2,b,naming,128,pool,-1,wrong_word,NA,Apr 18 2023 09:52:12,Agnieszka,1
60dca,60dca_session2_listb_naming_trial129_dinosaur.wav,2,b,naming,129,dinosaur,1173,correct,NA,Apr 18 2023 09:52:19,Agnieszka,1
60dca,60dca_session2_listb_naming_trial130_chair.wav,2,b,naming,130,chair,1046,correct,NA,Apr 18 2023 09:52:26,Agnieszka,1
60dca,60dca_session2_listb_naming_trial131_cowboy.wav,2,b,naming,131,cowboy,1090,correct,NA,Apr 18 2023 09:52:34,Agnieszka,1
60dca,60dca_session2_listb_naming_trial132_foot.wav,2,b,naming,132,foot,858,correct,NA,Apr 18 2023 09:53:01,Agnieszka,1
60dca,60dca_session2_listb_naming_trial133_car.wav,2,b,naming,133,car,858,correct,NA,Apr 18 2023 09:53:08,Agnieszka,1
60dca,60dca_session2_listb_naming_trial134_television.wav,2,b,naming,134,television,832,correct,NA,Apr 18 2023 09:53:18,Agnieszka,1
60dca,60dca_session2_listb_naming_trial135_farm.wav,2,b,naming,135,farm,1301,correct,NA,Apr 18 2023 09:55:00,Agnieszka,1
60dca,60dca_session2_listb_naming_trial136_guitar.wav,2,b,naming,136,guitar,1479,correct,NA,Apr 18 2023 09:55:08,Agnieszka,1
60dca,60dca_session2_listb_naming_trial137_parachute.wav,2,b,naming,137,parachute,1106,correct,NA,Apr 18 2023 09:55:15,Agnieszka,1
60dca,60dca_session2_listb_naming_trial138_hair.wav,2,b,naming,138,hair,915,correct,NA,Apr 18 2023 09:55:27,Agnieszka,1
60dca,60dca_session2_listb_naming_trial139_shirt.wav,2,b,naming,139,shirt,874,correct,NA,Apr 18 2023 09:55:34,Agnieszka,1
60dca,60dca_session2_listb_naming_trial140_road.wav,2,b,naming,140,road,1027,correct,NA,Apr 18 2023 09:55:40,Agnieszka,1
60dca,60dca_session2_listb_naming_trial141_cigarette.wav,2,b,naming,141,cigarette,848,correct,NA,Apr 18 2023 09:55:48,Agnieszka,1
60dca,60dca_session2_listb_naming_trial142_torch.wav,2,b,naming,142,torch,1075,correct,NA,Apr 18 2023 09:55:55,Agnieszka,1
60dca,60dca_session2_listb_naming_trial143_egg.wav,2,b,naming,143,egg,1285,correct,NA,Apr 18 2023 09:56:03,Agnieszka,1
60dca,60dca_session2_listb_naming_trial144_man.wav,2,b,naming,144,man,1581,correct,NA,Apr 18 2023 09:56:10,Agnieszka,1
60dca,60dca_session2_listb_naming_trial145_calculator.wav,2,b,naming,145,calculator,992,correct,NA,Apr 18 2023 09:56:20,Agnieszka,1
60dca,60dca_session2_listb_naming_trial146_nurse.wav,2,b,naming,146,nurse,1552,correct,NA,Apr 18 2023 09:56:27,Agnieszka,1
60dca,60dca_session2_listb_naming_trial147_moustache.wav,2,b,naming,147,moustache,1132,correct,NA,Apr 18 2023 09:56:34,Agnieszka,1
60dca,60dca_session2_listb_naming_trial148_bin.wav,2,b,naming,148,bin,1036,correct,NA,Apr 18 2023 09:56:41,Agnieszka,1
60dca,60dca_session2_listb_naming_trial149_balloon.wav,2,b,naming,149,balloon,775,correct,NA,Apr 18 2023 09:56:50,Agnieszka,1
60dca,60dca_session2_listb_naming_trial150_telephone.wav,2,b,naming,150,telephone,759,correct,NA,Apr 18 2023 09:57:03,Agnieszka,1
