Participant_ID,File_Name,Session,List,Type_Trial,Trial_Nbr,Target,RT,Response_Trial,Comment,Date_Correction,Assessor_Name,Processed
60217,60217_session2_listb_naming_trial001_torch.wav,2,b,naming,1,torch,848,correct,NA,Apr 19 2023 08:19:22,Agnieszka,1
60217,60217_session2_listb_naming_trial002_thermometer.wav,2,b,naming,2,thermometer,731,correct,NA,Apr 19 2023 08:19:32,Agnieszka,1
60217,60217_session2_listb_naming_trial003_telephone.wav,2,b,naming,3,telephone,756,correct,NA,Apr 19 2023 08:19:51,Agnieszka,1
60217,60217_session2_listb_naming_trial004_girl.wav,2,b,naming,4,girl,928,correct,NA,Apr 19 2023 08:19:57,Agnieszka,1
60217,60217_session2_listb_naming_trial005_scorpion.wav,2,b,naming,5,scorpion,718,correct,NA,Apr 19 2023 08:20:05,Agnieszka,1
60217,60217_session2_listb_naming_trial006_well.wav,2,b,naming,6,well,759,correct,NA,Apr 19 2023 08:20:14,Agnieszka,1
60217,60217_session2_listb_naming_trial007_nose.wav,2,b,naming,7,nose,676,correct,NA,Apr 19 2023 08:20:22,Agnieszka,1
60217,60217_session2_listb_naming_trial008_wallet.wav,2,b,naming,8,wallet,756,correct,NA,Apr 19 2023 08:20:29,Agnieszka,1
60217,60217_session2_listb_naming_trial009_fire.wav,2,b,naming,9,fire,734,correct,NA,Apr 19 2023 08:20:51,Agnieszka,1
60217,60217_session2_listb_naming_trial010_apron.wav,2,b,naming,10,apron,842,correct,NA,Apr 19 2023 08:20:59,Agnieszka,1
60217,60217_session2_listb_naming_trial011_choir.wav,2,b,naming,11,choir,989,correct,NA,Apr 19 2023 08:21:08,Agnieszka,1
60217,60217_session2_listb_naming_trial012_duck.wav,2,b,naming,12,duck,753,correct,NA,Apr 19 2023 08:21:20,Agnieszka,1
60217,60217_session2_listb_naming_trial013_cowboy.wav,2,b,naming,13,cowboy,775,correct,NA,Apr 19 2023 08:21:34,Agnieszka,1
60217,60217_session2_listb_naming_trial014_printer.wav,2,b,naming,14,printer,992,correct,NA,Apr 19 2023 08:21:46,Agnieszka,1
60217,60217_session2_listb_naming_trial015_penguin.wav,2,b,naming,15,penguin,696,correct,NA,Apr 19 2023 08:22:14,Agnieszka,1
60217,60217_session2_listb_naming_trial016_lab.wav,2,b,naming,16,lab,976,correct,NA,Apr 19 2023 08:22:26,Agnieszka,1
60217,60217_session2_listb_naming_trial017_crown.wav,2,b,naming,17,crown,747,correct,NA,Apr 19 2023 08:22:36,Agnieszka,1
60217,60217_session2_listb_naming_trial018_fruit.wav,2,b,naming,18,fruit,820,correct,NA,Apr 19 2023 08:22:43,Agnieszka,1
60217,60217_session2_listb_naming_trial019_banana.wav,2,b,naming,19,banana,661,correct,NA,Apr 19 2023 08:22:58,Agnieszka,1
60217,60217_session2_listb_naming_trial020_roof.wav,2,b,naming,20,roof,1024,correct,NA,Apr 19 2023 08:23:06,Agnieszka,1
60217,60217_session2_listb_naming_trial021_pizza.wav,2,b,naming,21,pizza,794,correct,NA,Apr 19 2023 08:23:22,Agnieszka,1
60217,60217_session2_listb_naming_trial022_mask.wav,2,b,naming,22,mask,817,correct,NA,Apr 19 2023 08:23:29,Agnieszka,1
60217,60217_session2_listb_naming_trial023_jar.wav,2,b,naming,23,jar,724,correct,NA,Apr 19 2023 08:23:39,Agnieszka,1
60217,60217_session2_listb_naming_trial024_trumpet.wav,2,b,naming,24,trumpet,801,correct,NA,Apr 19 2023 08:23:49,Agnieszka,1
60217,60217_session2_listb_naming_trial025_airport.wav,2,b,naming,25,airport,1348,correct,NA,Apr 19 2023 08:23:58,Agnieszka,1
60217,60217_session2_listb_naming_trial026_coffee.wav,2,b,naming,26,coffee,877,correct,NA,Apr 19 2023 08:24:06,Agnieszka,1
60217,60217_session2_listb_naming_trial027_skateboard.wav,2,b,naming,27,skateboard,836,correct,NA,Apr 19 2023 08:24:12,Agnieszka,1
60217,60217_session2_listb_naming_trial028_beard.wav,2,b,naming,28,beard,855,correct,NA,Apr 19 2023 08:24:20,Agnieszka,1
60217,60217_session2_listb_naming_trial029_cone.wav,2,b,naming,29,cone,785,correct,NA,Apr 19 2023 08:24:28,Agnieszka,1
60217,60217_session2_listb_naming_trial030_scarecrow.wav,2,b,naming,30,scarecrow,737,correct,NA,Apr 19 2023 08:24:36,Agnieszka,1
60217,60217_session2_listb_naming_trial031_iron.wav,2,b,naming,31,iron,1071,correct,NA,Apr 19 2023 08:24:53,Agnieszka,1
60217,60217_session2_listb_naming_trial032_lemon.wav,2,b,naming,32,lemon,842,correct,NA,Apr 19 2023 08:25:03,Agnieszka,1
60217,60217_session2_listb_naming_trial033_shadow.wav,2,b,naming,33,shadow,899,correct,NA,Apr 19 2023 08:25:24,Agnieszka,1
60217,60217_session2_listb_naming_trial034_road.wav,2,b,naming,34,road,868,correct,NA,Apr 19 2023 08:25:35,Agnieszka,1
60217,60217_session2_listb_naming_trial035_finger.wav,2,b,naming,35,finger,743,correct,NA,Apr 19 2023 08:25:48,Agnieszka,1
60217,60217_session2_listb_naming_trial036_chain.wav,2,b,naming,36,chain,775,correct,NA,Apr 19 2023 08:25:57,Agnieszka,1
60217,60217_session2_listb_naming_trial037_farm.wav,2,b,naming,37,farm,1798,correct,NA,Apr 19 2023 08:26:05,Agnieszka,1
60217,60217_session2_listb_naming_trial038_parachute.wav,2,b,naming,38,parachute,922,correct,NA,Apr 19 2023 08:26:13,Agnieszka,1
60217,60217_session2_listb_naming_trial039_gun.wav,2,b,naming,39,gun,842,correct,NA,Apr 19 2023 08:26:24,Agnieszka,1
60217,60217_session2_listb_naming_trial040_giraffe.wav,2,b,naming,40,giraffe,775,correct,NA,Apr 19 2023 08:26:32,Agnieszka,1
60217,60217_session2_listb_naming_trial041_pool.wav,2,b,naming,41,pool,-1,wrong_word,NA,Apr 19 2023 08:26:38,Agnieszka,1
60217,60217_session2_listb_naming_trial042_hair.wav,2,b,naming,42,hair,1036,correct,NA,Apr 19 2023 08:26:46,Agnieszka,1
60217,60217_session2_listb_naming_trial043_dolphin.wav,2,b,naming,43,dolphin,1059,correct,NA,Apr 19 2023 08:27:18,Agnieszka,1
60217,60217_session2_listb_naming_trial044_handle.wav,2,b,naming,44,handle,1205,correct,NA,Apr 19 2023 08:27:30,Agnieszka,1
60217,60217_session2_listb_naming_trial045_broom.wav,2,b,naming,45,broom,852,correct,NA,Apr 19 2023 08:27:37,Agnieszka,1
60217,60217_session2_listb_naming_trial046_dentist.wav,2,b,naming,46,dentist,1412,correct,NA,Apr 19 2023 08:27:43,Agnieszka,1
60217,60217_session2_listb_naming_trial047_cage.wav,2,b,naming,47,cage,1438,correct,NA,Apr 19 2023 08:27:51,Agnieszka,1
60217,60217_session2_listb_naming_trial048_umbrella.wav,2,b,naming,48,umbrella,788,correct,NA,Apr 19 2023 08:28:00,Agnieszka,1
60217,60217_session2_listb_naming_trial049_vein.wav,2,b,naming,49,vein,1001,correct,NA,Apr 19 2023 08:28:11,Agnieszka,1
60217,60217_session2_listb_naming_trial050_tooth.wav,2,b,naming,50,tooth,880,correct,NA,Apr 19 2023 08:28:22,Agnieszka,1
60217,60217_session2_listb_naming_trial051_ring.wav,2,b,naming,51,ring,915,correct,NA,Apr 19 2023 08:28:30,Agnieszka,1
60217,60217_session2_listb_naming_trial052_stapler.wav,2,b,naming,52,stapler,705,correct,NA,Apr 19 2023 08:28:43,Agnieszka,1
60217,60217_session2_listb_naming_trial053_condom.wav,2,b,naming,53,condom,1043,correct,NA,Apr 19 2023 08:28:50,Agnieszka,1
60217,60217_session2_listb_naming_trial054_shirt.wav,2,b,naming,54,shirt,711,correct,NA,Apr 19 2023 08:29:00,Agnieszka,1
60217,60217_session2_listb_naming_trial055_harp.wav,2,b,naming,55,harp,-1,no_resp,NA,Apr 19 2023 08:29:05,Agnieszka,1
60217,60217_session2_listb_naming_trial056_bin.wav,2,b,naming,56,bin,954,correct,NA,Apr 19 2023 08:29:14,Agnieszka,1
60217,60217_session2_listb_naming_trial057_foot.wav,2,b,naming,57,foot,-1,wrong_word,NA,Apr 19 2023 08:29:22,Agnieszka,1
60217,60217_session2_listb_naming_trial058_leaf.wav,2,b,naming,58,leaf,832,correct,NA,Apr 19 2023 08:29:30,Agnieszka,1
60217,60217_session2_listb_naming_trial059_desert.wav,2,b,naming,59,desert,1170,correct,NA,Apr 19 2023 08:29:40,Agnieszka,1
60217,60217_session2_listb_naming_trial060_cloud.wav,2,b,naming,60,cloud,801,correct,NA,Apr 19 2023 08:29:50,Agnieszka,1
60217,60217_session2_listb_naming_trial061_sock.wav,2,b,naming,61,sock,727,correct,NA,Apr 19 2023 08:29:57,Agnieszka,1
60217,60217_session2_listb_naming_trial062_scarf.wav,2,b,naming,62,scarf,766,correct,NA,Apr 19 2023 08:30:05,Agnieszka,1
60217,60217_session2_listb_naming_trial063_nun.wav,2,b,naming,63,nun,1266,correct,NA,Apr 19 2023 08:30:12,Agnieszka,1
60217,60217_session2_listb_naming_trial064_skeleton.wav,2,b,naming,64,skeleton,673,correct,NA,Apr 19 2023 08:30:20,Agnieszka,1
60217,60217_session2_listb_naming_trial065_cannon.wav,2,b,naming,65,cannon,-1,no_resp,NA,Apr 19 2023 08:30:26,Agnieszka,1
60217,60217_session2_listb_naming_trial066_television.wav,2,b,naming,66,television,-1,wrong_word,and disfluency,Apr 19 2023 08:30:37,Agnieszka,1
60217,60217_session2_listb_naming_trial067_tank.wav,2,b,naming,67,tank,-1,no_resp,NA,Apr 19 2023 08:30:44,Agnieszka,1
60217,60217_session2_listb_naming_trial068_strawberry.wav,2,b,naming,68,strawberry,829,correct,NA,Apr 19 2023 08:30:51,Agnieszka,1
60217,60217_session2_listb_naming_trial069_waiter.wav,2,b,naming,69,waiter,747,correct,NA,Apr 19 2023 08:30:58,Agnieszka,1
60217,60217_session2_listb_naming_trial070_calendar.wav,2,b,naming,70,calendar,1237,correct,NA,Apr 19 2023 08:31:10,Agnieszka,1
60217,60217_session2_listb_naming_trial071_door.wav,2,b,naming,71,door,766,correct,NA,Apr 19 2023 08:31:22,Agnieszka,1
60217,60217_session2_listb_naming_trial072_earring.wav,2,b,naming,72,earring,1173,correct,NA,Apr 19 2023 08:31:29,Agnieszka,1
60217,60217_session2_listb_naming_trial073_bible.wav,2,b,naming,73,bible,1049,correct,NA,Apr 19 2023 08:31:37,Agnieszka,1
60217,60217_session2_listb_naming_trial074_lizard.wav,2,b,naming,74,lizard,1218,correct,NA,Apr 19 2023 08:31:44,Agnieszka,1
60217,60217_session2_listb_naming_trial075_screwdriver.wav,2,b,naming,75,screwdriver,766,correct,NA,Apr 19 2023 08:31:53,Agnieszka,1
60217,60217_session2_listb_naming_trial076_coconut.wav,2,b,naming,76,coconut,756,correct,NA,Apr 19 2023 08:32:01,Agnieszka,1
60217,60217_session2_listb_naming_trial077_greenhouse.wav,2,b,naming,77,greenhouse,-1,disfluency,NA,Apr 19 2023 08:32:13,Agnieszka,1
60217,60217_session2_listb_naming_trial078_devil.wav,2,b,naming,78,devil,950,correct,NA,Apr 19 2023 08:32:23,Agnieszka,1
60217,60217_session2_listb_naming_trial079_king.wav,2,b,naming,79,king,1345,correct,telephone ringing in the beginning,Apr 19 2023 08:32:43,Agnieszka,1
60217,60217_session2_listb_naming_trial080_boomerang.wav,2,b,naming,80,boomerang,909,correct,NA,Apr 19 2023 08:32:52,Agnieszka,1
60217,60217_session2_listb_naming_trial081_shark.wav,2,b,naming,81,shark,973,correct,NA,Apr 19 2023 08:32:59,Agnieszka,1
60217,60217_session2_listb_naming_trial082_honey.wav,2,b,naming,82,honey,864,correct,NA,Apr 19 2023 08:33:06,Agnieszka,1
60217,60217_session2_listb_naming_trial083_chair.wav,2,b,naming,83,chair,718,correct,NA,Apr 19 2023 08:33:17,Agnieszka,1
60217,60217_session2_listb_naming_trial084_man.wav,2,b,naming,84,man,1686,correct,NA,Apr 19 2023 08:33:23,Agnieszka,1
60217,60217_session2_listb_naming_trial085_caravan.wav,2,b,naming,85,caravan,794,correct,NA,Apr 19 2023 08:33:31,Agnieszka,1
60217,60217_session2_listb_naming_trial086_needle.wav,2,b,naming,86,needle,836,correct,NA,Apr 19 2023 08:33:39,Agnieszka,1
60217,60217_session2_listb_naming_trial087_butcher.wav,2,b,naming,87,butcher,1275,correct,NA,Apr 19 2023 08:33:46,Agnieszka,1
60217,60217_session2_listb_naming_trial088_guitar.wav,2,b,naming,88,guitar,1052,correct,NA,Apr 19 2023 08:33:59,Agnieszka,1
60217,60217_session2_listb_naming_trial089_balloon.wav,2,b,naming,89,balloon,657,correct,NA,Apr 19 2023 08:34:09,Agnieszka,1
60217,60217_session2_listb_naming_trial090_dog.wav,2,b,naming,90,dog,826,correct,NA,Apr 19 2023 08:34:16,Agnieszka,1
60217,60217_session2_listb_naming_trial091_keyboard.wav,2,b,naming,91,keyboard,813,correct,NA,Apr 19 2023 08:34:26,Agnieszka,1
60217,60217_session2_listb_naming_trial092_parrot.wav,2,b,naming,92,parrot,753,correct,NA,Apr 19 2023 08:34:35,Agnieszka,1
60217,60217_session2_listb_naming_trial093_belt.wav,2,b,naming,93,belt,864,correct,NA,Apr 19 2023 08:34:42,Agnieszka,1
60217,60217_session2_listb_naming_trial094_witch.wav,2,b,naming,94,witch,848,correct,NA,Apr 19 2023 08:34:49,Agnieszka,1
60217,60217_session2_listb_naming_trial095_glass.wav,2,b,naming,95,glass,982,correct,NA,Apr 19 2023 08:34:56,Agnieszka,1
60217,60217_session2_listb_naming_trial096_watch.wav,2,b,naming,96,watch,1014,correct,NA,Apr 19 2023 08:35:06,Agnieszka,1
60217,60217_session2_listb_naming_trial097_dinosaur.wav,2,b,naming,97,dinosaur,861,correct,NA,Apr 19 2023 08:35:14,Agnieszka,1
60217,60217_session2_listb_naming_trial098_coffin.wav,2,b,naming,98,coffin,1055,correct,NA,Apr 19 2023 08:35:21,Agnieszka,1
60217,60217_session2_listb_naming_trial099_car.wav,2,b,naming,99,car,1390,correct,NA,Apr 19 2023 08:35:27,Agnieszka,1
60217,60217_session2_listb_naming_trial100_pilot.wav,2,b,naming,100,pilot,-1,wrong_word,NA,Apr 19 2023 08:35:36,Agnieszka,1
60217,60217_session2_listb_naming_trial101_cigarette.wav,2,b,naming,101,cigarette,705,correct,NA,Apr 19 2023 08:35:44,Agnieszka,1
60217,60217_session2_listb_naming_trial102_hedgehog.wav,2,b,naming,102,hedgehog,686,uncertain,noisy background,Apr 19 2023 08:36:32,Agnieszka,1
60217,60217_session2_listb_naming_trial103_sheep.wav,2,b,naming,103,sheep,571,correct,NA,Apr 19 2023 08:41:30,Agnieszka,1
60217,60217_session2_listb_naming_trial104_face.wav,2,b,naming,104,face,648,correct,NA,Apr 19 2023 08:41:39,Agnieszka,1
60217,60217_session2_listb_naming_trial105_cactus.wav,2,b,naming,105,cactus,829,correct,NA,Apr 19 2023 08:41:50,Agnieszka,1
60217,60217_session2_listb_naming_trial106_lion.wav,2,b,naming,106,lion,861,correct,NA,Apr 19 2023 08:41:57,Agnieszka,1
60217,60217_session2_listb_naming_trial107_heart.wav,2,b,naming,107,heart,1062,correct,NA,Apr 19 2023 08:42:20,Agnieszka,1
60217,60217_session2_listb_naming_trial108_pirate.wav,2,b,naming,108,pirate,1610,correct,NA,Apr 19 2023 08:42:29,Agnieszka,1
60217,60217_session2_listb_naming_trial109_microphone.wav,2,b,naming,109,microphone,874,correct,NA,Apr 19 2023 08:42:36,Agnieszka,1
60217,60217_session2_listb_naming_trial110_maze.wav,2,b,naming,110,maze,925,correct,NA,Apr 19 2023 08:42:43,Agnieszka,1
60217,60217_session2_listb_naming_trial111_football.wav,2,b,naming,111,football,743,correct,NA,Apr 19 2023 08:42:55,Agnieszka,1
60217,60217_session2_listb_naming_trial112_snail.wav,2,b,naming,112,snail,740,correct,NA,Apr 19 2023 08:43:02,Agnieszka,1
60217,60217_session2_listb_naming_trial113_ankle.wav,2,b,naming,113,ankle,1313,correct,NA,Apr 19 2023 08:43:13,Agnieszka,1
60217,60217_session2_listb_naming_trial114_broccoli.wav,2,b,naming,114,broccoli,813,correct,NA,Apr 19 2023 08:43:21,Agnieszka,1
60217,60217_session2_listb_naming_trial115_ambulance.wav,2,b,naming,115,ambulance,785,correct,NA,Apr 19 2023 08:43:29,Agnieszka,1
60217,60217_session2_listb_naming_trial116_mirror.wav,2,b,naming,116,mirror,794,correct,NA,Apr 19 2023 08:43:36,Agnieszka,1
60217,60217_session2_listb_naming_trial117_bedroom.wav,2,b,naming,117,bedroom,864,correct,NA,Apr 19 2023 08:43:49,Agnieszka,1
60217,60217_session2_listb_naming_trial118_bat.wav,2,b,naming,118,bat,829,correct,NA,Apr 19 2023 08:43:56,Agnieszka,1
60217,60217_session2_listb_naming_trial119_hand.wav,2,b,naming,119,hand,766,correct,NA,Apr 19 2023 08:44:11,Agnieszka,1
60217,60217_session2_listb_naming_trial120_diamond.wav,2,b,naming,120,diamond,737,correct,NA,Apr 19 2023 08:44:17,Agnieszka,1
60217,60217_session2_listb_naming_trial121_camera.wav,2,b,naming,121,camera,718,correct,NA,Apr 19 2023 08:44:32,Agnieszka,1
60217,60217_session2_listb_naming_trial122_bra.wav,2,b,naming,122,bra,1014,correct,NA,Apr 19 2023 08:44:43,Agnieszka,1
60217,60217_session2_listb_naming_trial123_back.wav,2,b,naming,123,back,925,correct,NA,Apr 19 2023 08:44:50,Agnieszka,1
60217,60217_session2_listb_naming_trial124_sink.wav,2,b,naming,124,sink,836,correct,NA,Apr 19 2023 08:45:07,Agnieszka,1
60217,60217_session2_listb_naming_trial125_bed.wav,2,b,naming,125,bed,810,correct,NA,Apr 19 2023 08:45:16,Agnieszka,1
60217,60217_session2_listb_naming_trial126_fan.wav,2,b,naming,126,fan,778,correct,NA,Apr 19 2023 08:46:13,Agnieszka,1
60217,60217_session2_listb_naming_trial127_egg.wav,2,b,naming,127,egg,887,correct,NA,Apr 19 2023 08:46:23,Agnieszka,1
60217,60217_session2_listb_naming_trial128_button.wav,2,b,naming,128,button,826,correct,NA,Apr 19 2023 08:46:33,Agnieszka,1
60217,60217_session2_listb_naming_trial129_feather.wav,2,b,naming,129,feather,664,correct,NA,Apr 19 2023 08:46:40,Agnieszka,1
60217,60217_session2_listb_naming_trial130_brain.wav,2,b,naming,130,brain,778,correct,NA,Apr 19 2023 08:46:50,Agnieszka,1
60217,60217_session2_listb_naming_trial131_nurse.wav,2,b,naming,131,nurse,1396,correct,NA,Apr 19 2023 08:46:56,Agnieszka,1
60217,60217_session2_listb_naming_trial132_frog.wav,2,b,naming,132,frog,826,correct,NA,Apr 19 2023 08:47:04,Agnieszka,1
60217,60217_session2_listb_naming_trial133_baby.wav,2,b,naming,133,baby,727,correct,NA,Apr 19 2023 08:47:13,Agnieszka,1
60217,60217_session2_listb_naming_trial134_knee.wav,2,b,naming,134,knee,775,correct,NA,Apr 19 2023 08:47:22,Agnieszka,1
60217,60217_session2_listb_naming_trial135_swimming.wav,2,b,naming,135,swimming,-1,wrong_word,NA,Apr 19 2023 08:47:29,Agnieszka,1
60217,60217_session2_listb_naming_trial136_glasses.wav,2,b,naming,136,glasses,654,correct,NA,Apr 19 2023 08:47:42,Agnieszka,1
60217,60217_session2_listb_naming_trial137_house.wav,2,b,naming,137,house,664,correct,NA,Apr 19 2023 08:47:49,Agnieszka,1
60217,60217_session2_listb_naming_trial138_spider.wav,2,b,naming,138,spider,654,correct,NA,Apr 19 2023 08:47:57,Agnieszka,1
60217,60217_session2_listb_naming_trial139_skull.wav,2,b,naming,139,skull,664,correct,NA,Apr 19 2023 08:48:07,Agnieszka,1
60217,60217_session2_listb_naming_trial140_calculator.wav,2,b,naming,140,calculator,683,correct,NA,Apr 19 2023 08:48:14,Agnieszka,1
60217,60217_session2_listb_naming_trial141_pumpkin.wav,2,b,naming,141,pumpkin,740,correct,NA,Apr 19 2023 08:48:21,Agnieszka,1
60217,60217_session2_listb_naming_trial142_spoon.wav,2,b,naming,142,spoon,645,correct,NA,Apr 19 2023 08:48:28,Agnieszka,1
60217,60217_session2_listb_naming_trial143_elephant.wav,2,b,naming,143,elephant,743,correct,NA,Apr 19 2023 08:48:36,Agnieszka,1
60217,60217_session2_listb_naming_trial144_burger.wav,2,b,naming,144,burger,711,correct,NA,Apr 19 2023 08:48:54,Agnieszka,1
60217,60217_session2_listb_naming_trial145_asparagus.wav,2,b,naming,145,asparagus,721,correct,NA,Apr 19 2023 08:49:07,Agnieszka,1
60217,60217_session2_listb_naming_trial146_fist.wav,2,b,naming,146,fist,848,correct,NA,Apr 19 2023 08:49:16,Agnieszka,1
60217,60217_session2_listb_naming_trial147_moustache.wav,2,b,naming,147,moustache,826,correct,NA,Apr 19 2023 08:49:24,Agnieszka,1
60217,60217_session2_listb_naming_trial148_eye.wav,2,b,naming,148,eye,708,correct,NA,Apr 19 2023 08:49:43,Agnieszka,1
60217,60217_session2_listb_naming_trial149_dragon.wav,2,b,naming,149,dragon,1361,correct,NA,Apr 19 2023 08:49:52,Agnieszka,1
60217,60217_session2_listb_naming_trial150_volcano.wav,2,b,naming,150,volcano,858,correct,NA,Apr 19 2023 08:50:05,Agnieszka,1
