Participant_ID,File_Name,Session,List,Type_Trial,Trial_Nbr,Target,RT,Response_Trial,Comment,Date_Correction,Assessor_Name,Processed
5baa7,5baa7_session2_listb_naming_trial001_keyboard.wav,2,b,naming,1,keyboard,868,correct,NA,Apr 26 2023 23:07:43,Radhika,1
5baa7,5baa7_session2_listb_naming_trial002_heart.wav,2,b,naming,2,heart,689,correct,NA,Apr 26 2023 23:08:19,Radhika,1
5baa7,5baa7_session2_listb_naming_trial003_trumpet.wav,2,b,naming,3,trumpet,878,correct,NA,Apr 26 2023 23:08:46,Radhika,1
5baa7,5baa7_session2_listb_naming_trial004_penguin.wav,2,b,naming,4,penguin,833,correct,NA,Apr 26 2023 23:09:11,Radhika,1
5baa7,5baa7_session2_listb_naming_trial005_car.wav,2,b,naming,5,car,695,correct,NA,Apr 26 2023 23:09:25,Radhika,1
5baa7,5baa7_session2_listb_naming_trial006_giraffe.wav,2,b,naming,6,giraffe,672,correct,NA,Apr 26 2023 23:10:00,Radhika,1
5baa7,5baa7_session2_listb_naming_trial007_eye.wav,2,b,naming,7,eye,710,correct,NA,Apr 26 2023 23:10:31,Radhika,1
5baa7,5baa7_session2_listb_naming_trial008_honey.wav,2,b,naming,8,honey,672,correct,NA,Apr 26 2023 23:10:56,Radhika,1
5baa7,5baa7_session2_listb_naming_trial009_nurse.wav,2,b,naming,9,nurse,760,correct,NA,Apr 26 2023 23:11:11,Radhika,1
5baa7,5baa7_session2_listb_naming_trial010_bible.wav,2,b,naming,10,bible,1180,correct,NA,Apr 26 2023 23:11:21,Radhika,1
5baa7,5baa7_session2_listb_naming_trial011_glasses.wav,2,b,naming,11,glasses,720,correct,NA,Apr 26 2023 23:11:43,Radhika,1
5baa7,5baa7_session2_listb_naming_trial012_leaf.wav,2,b,naming,12,leaf,762,correct,NA,Apr 26 2023 23:12:02,Radhika,1
5baa7,5baa7_session2_listb_naming_trial013_vein.wav,2,b,naming,13,vein,848,correct,NA,Apr 26 2023 23:12:25,Radhika,1
5baa7,5baa7_session2_listb_naming_trial014_glass.wav,2,b,naming,14,glass,-1,wrong_word,NA,Apr 26 2023 23:12:31,Radhika,1
5baa7,5baa7_session2_listb_naming_trial015_chain.wav,2,b,naming,15,chain,711,correct,NA,Apr 26 2023 23:12:57,Radhika,1
5baa7,5baa7_session2_listb_naming_trial016_fist.wav,2,b,naming,16,fist,760,correct,NA,Apr 26 2023 23:13:33,Radhika,1
5baa7,5baa7_session2_listb_naming_trial017_calendar.wav,2,b,naming,17,calendar,837,correct,NA,Apr 26 2023 23:13:53,Radhika,1
5baa7,5baa7_session2_listb_naming_trial018_crown.wav,2,b,naming,18,crown,712,correct,NA,Apr 26 2023 23:14:08,Radhika,1
5baa7,5baa7_session2_listb_naming_trial019_road.wav,2,b,naming,19,road,981,correct,NA,Apr 26 2023 23:14:21,Radhika,1
5baa7,5baa7_session2_listb_naming_trial020_dog.wav,2,b,naming,20,dog,909,correct,NA,Apr 26 2023 23:14:43,Radhika,1
5baa7,5baa7_session2_listb_naming_trial021_mirror.wav,2,b,naming,21,mirror,753,correct,NA,Apr 26 2023 23:14:54,Radhika,1
5baa7,5baa7_session2_listb_naming_trial022_maze.wav,2,b,naming,22,maze,924,correct,NA,Apr 26 2023 23:15:08,Radhika,1
5baa7,5baa7_session2_listb_naming_trial023_balloon.wav,2,b,naming,23,balloon,824,correct,NA,Apr 26 2023 23:15:34,Radhika,1
5baa7,5baa7_session2_listb_naming_trial024_earring.wav,2,b,naming,24,earring,878,correct,NA,Apr 26 2023 23:15:49,Radhika,1
5baa7,5baa7_session2_listb_naming_trial025_witch.wav,2,b,naming,25,witch,812,correct,NA,Apr 26 2023 23:16:05,Radhika,1
5baa7,5baa7_session2_listb_naming_trial026_scorpion.wav,2,b,naming,26,scorpion,800,correct,NA,Apr 26 2023 23:16:47,Radhika,1
5baa7,5baa7_session2_listb_naming_trial027_sheep.wav,2,b,naming,27,sheep,743,correct,NA,Apr 26 2023 23:17:29,Radhika,1
5baa7,5baa7_session2_listb_naming_trial028_feather.wav,2,b,naming,28,feather,628,correct,NA,Apr 26 2023 23:17:57,Radhika,1
5baa7,5baa7_session2_listb_naming_trial029_torch.wav,2,b,naming,29,torch,786,correct,NA,Apr 26 2023 23:18:22,Radhika,1
5baa7,5baa7_session2_listb_naming_trial030_coffee.wav,2,b,naming,30,coffee,901,correct,NA,Apr 26 2023 23:18:37,Radhika,1
5baa7,5baa7_session2_listb_naming_trial031_apron.wav,2,b,naming,31,apron,1144,correct,NA,Apr 26 2023 23:44:07,Radhika,1
5baa7,5baa7_session2_listb_naming_trial032_cone.wav,2,b,naming,32,cone,1026,correct,NA,Apr 26 2023 23:44:40,Radhika,1
5baa7,5baa7_session2_listb_naming_trial033_wallet.wav,2,b,naming,33,wallet,857,correct,NA,Apr 26 2023 23:44:54,Radhika,1
5baa7,5baa7_session2_listb_naming_trial034_dinosaur.wav,2,b,naming,34,dinosaur,910,correct,NA,Apr 26 2023 23:45:11,Radhika,1
5baa7,5baa7_session2_listb_naming_trial035_lion.wav,2,b,naming,35,lion,778,correct,NA,Apr 26 2023 23:45:22,Radhika,1
5baa7,5baa7_session2_listb_naming_trial036_pumpkin.wav,2,b,naming,36,pumpkin,703,correct,NA,Apr 26 2023 23:46:13,Radhika,1
5baa7,5baa7_session2_listb_naming_trial037_cactus.wav,2,b,naming,37,cactus,761,correct,NA,Apr 26 2023 23:46:30,Radhika,1
5baa7,5baa7_session2_listb_naming_trial038_tank.wav,2,b,naming,38,tank,970,correct,NA,Apr 26 2023 23:46:56,Radhika,1
5baa7,5baa7_session2_listb_naming_trial039_door.wav,2,b,naming,39,door,745,correct,NA,Apr 26 2023 23:47:18,Radhika,1
5baa7,5baa7_session2_listb_naming_trial040_fire.wav,2,b,naming,40,fire,780,correct,NA,Apr 26 2023 23:48:21,Radhika,1
5baa7,5baa7_session2_listb_naming_trial041_volcano.wav,2,b,naming,41,volcano,936,correct,NA,Apr 26 2023 23:48:30,Radhika,1
5baa7,5baa7_session2_listb_naming_trial042_lizard.wav,2,b,naming,42,lizard,864,correct,NA,Apr 26 2023 23:48:45,Radhika,1
5baa7,5baa7_session2_listb_naming_trial043_camera.wav,2,b,naming,43,camera,1147,correct,NA,Apr 26 2023 23:49:05,Radhika,1
5baa7,5baa7_session2_listb_naming_trial044_pilot.wav,2,b,naming,44,pilot,965,correct,NA,Apr 26 2023 23:49:54,Radhika,1
5baa7,5baa7_session2_listb_naming_trial045_scarecrow.wav,2,b,naming,45,scarecrow,763,correct,NA,Apr 26 2023 23:50:19,Radhika,1
5baa7,5baa7_session2_listb_naming_trial046_skeleton.wav,2,b,naming,46,skeleton,670,correct,NA,Apr 26 2023 23:51:33,Radhika,1
5baa7,5baa7_session2_listb_naming_trial047_lemon.wav,2,b,naming,47,lemon,708,correct,NA,Apr 26 2023 23:51:43,Radhika,1
5baa7,5baa7_session2_listb_naming_trial048_greenhouse.wav,2,b,naming,48,greenhouse,773,correct,NA,Apr 26 2023 23:52:22,Radhika,1
5baa7,5baa7_session2_listb_naming_trial049_coffin.wav,2,b,naming,49,coffin,716,correct,NA,Apr 26 2023 23:52:42,Radhika,1
5baa7,5baa7_session2_listb_naming_trial050_handle.wav,2,b,naming,50,handle,1090,correct,NA,Apr 26 2023 23:53:33,Radhika,1
5baa7,5baa7_session2_listb_naming_trial051_house.wav,2,b,naming,51,house,950,correct,NA,Apr 26 2023 23:54:03,Radhika,1
5baa7,5baa7_session2_listb_naming_trial052_king.wav,2,b,naming,52,king,889,correct,NA,Apr 26 2023 23:54:31,Radhika,1
5baa7,5baa7_session2_listb_naming_trial053_egg.wav,2,b,naming,53,egg,855,correct,NA,Apr 26 2023 23:54:53,Radhika,1
5baa7,5baa7_session2_listb_naming_trial054_scarf.wav,2,b,naming,54,scarf,898,correct,NA,Apr 26 2023 23:56:01,Radhika,1
5baa7,5baa7_session2_listb_naming_trial055_ring.wav,2,b,naming,55,ring,798,correct,NA,Apr 26 2023 23:56:13,Radhika,1
5baa7,5baa7_session2_listb_naming_trial056_spoon.wav,2,b,naming,56,spoon,797,correct,NA,Apr 26 2023 23:58:22,Radhika,1
5baa7,5baa7_session2_listb_naming_trial057_cannon.wav,2,b,naming,57,cannon,1904,correct,NA,Apr 26 2023 23:58:23,Radhika,1
5baa7,5baa7_session2_listb_naming_trial058_pirate.wav,2,b,naming,58,pirate,848,correct,NA,Apr 26 2023 23:58:24,Radhika,1
5baa7,5baa7_session2_listb_naming_trial059_frog.wav,2,b,naming,59,frog,1062,correct,NA,Apr 26 2023 23:59:14,Radhika,1
5baa7,5baa7_session2_listb_naming_trial060_choir.wav,2,b,naming,60,choir,1267,correct,NA,Apr 26 2023 23:59:40,Radhika,1
5baa7,5baa7_session2_listb_naming_trial061_fruit.wav,2,b,naming,61,fruit,729,correct,NA,Apr 27 2023 00:00:25,Radhika,1
5baa7,5baa7_session2_listb_naming_trial062_shark.wav,2,b,naming,62,shark,710,correct,NA,Apr 27 2023 00:00:52,Radhika,1
5baa7,5baa7_session2_listb_naming_trial063_hair.wav,2,b,naming,63,hair,786,correct,NA,Apr 27 2023 00:01:15,Radhika,1
5baa7,5baa7_session2_listb_naming_trial064_bin.wav,2,b,naming,64,bin,1052,correct,NA,Apr 27 2023 00:01:30,Radhika,1
5baa7,5baa7_session2_listb_naming_trial065_face.wav,2,b,naming,65,face,848,correct,NA,Apr 27 2023 00:02:29,Radhika,1
5baa7,5baa7_session2_listb_naming_trial066_elephant.wav,2,b,naming,66,elephant,741,correct,NA,Apr 27 2023 00:02:58,Radhika,1
5baa7,5baa7_session2_listb_naming_trial067_back.wav,2,b,naming,67,back,1043,correct,NA,Apr 27 2023 00:03:17,Radhika,1
5baa7,5baa7_session2_listb_naming_trial068_fan.wav,2,b,naming,68,fan,766,correct,NA,Apr 27 2023 00:04:02,Radhika,1
5baa7,5baa7_session2_listb_naming_trial069_belt.wav,2,b,naming,69,belt,895,correct,NA,Apr 27 2023 00:04:13,Radhika,1
5baa7,5baa7_session2_listb_naming_trial070_jar.wav,2,b,naming,70,jar,909,correct,NA,Apr 27 2023 00:04:45,Radhika,1
5baa7,5baa7_session2_listb_naming_trial071_butcher.wav,2,b,naming,71,butcher,1072,correct,NA,Apr 27 2023 00:05:04,Radhika,1
5baa7,5baa7_session2_listb_naming_trial072_cloud.wav,2,b,naming,72,cloud,786,correct,NA,Apr 27 2023 00:05:26,Radhika,1
5baa7,5baa7_session2_listb_naming_trial073_parrot.wav,2,b,naming,73,parrot,824,correct,NA,Apr 27 2023 00:05:56,Radhika,1
5baa7,5baa7_session2_listb_naming_trial074_asparagus.wav,2,b,naming,74,asparagus,959,correct,NA,Apr 27 2023 00:06:34,Radhika,1
5baa7,5baa7_session2_listb_naming_trial075_bra.wav,2,b,naming,75,bra,800,correct,NA,Apr 27 2023 00:06:47,Radhika,1
5baa7,5baa7_session2_listb_naming_trial076_burger.wav,2,b,naming,76,burger,1088,correct,NA,Apr 27 2023 00:07:04,Radhika,1
5baa7,5baa7_session2_listb_naming_trial077_guitar.wav,2,b,naming,77,guitar,777,correct,NA,Apr 27 2023 00:07:45,Radhika,1
5baa7,5baa7_session2_listb_naming_trial078_telephone.wav,2,b,naming,78,telephone,-1,wrong_word,NA,Apr 27 2023 00:08:31,Radhika,1
5baa7,5baa7_session2_listb_naming_trial079_printer.wav,2,b,naming,79,printer,1271,correct,NA,Apr 27 2023 00:08:46,Radhika,1
5baa7,5baa7_session2_listb_naming_trial080_microphone.wav,2,b,naming,80,microphone,1134,correct,NA,Apr 27 2023 00:08:59,Radhika,1
5baa7,5baa7_session2_listb_naming_trial081_watch.wav,2,b,naming,81,watch,849,correct,NA,Apr 27 2023 00:09:08,Radhika,1
5baa7,5baa7_session2_listb_naming_trial082_diamond.wav,2,b,naming,82,diamond,881,correct,NA,Apr 27 2023 00:22:22,Radhika,1
5baa7,5baa7_session2_listb_naming_trial083_baby.wav,2,b,naming,83,baby,715,correct,NA,Apr 27 2023 00:22:33,Radhika,1
5baa7,5baa7_session2_listb_naming_trial084_tooth.wav,2,b,naming,84,tooth,842,correct,NA,Apr 27 2023 00:22:59,Radhika,1
5baa7,5baa7_session2_listb_naming_trial085_shadow.wav,2,b,naming,85,shadow,956,correct,NA,Apr 27 2023 00:23:40,Radhika,1
5baa7,5baa7_session2_listb_naming_trial086_bed.wav,2,b,naming,86,bed,779,correct,NA,Apr 27 2023 00:23:54,Radhika,1
5baa7,5baa7_session2_listb_naming_trial087_girl.wav,2,b,naming,87,girl,907,correct,NA,Apr 27 2023 00:24:27,Radhika,1
5baa7,5baa7_session2_listb_naming_trial088_dentist.wav,2,b,naming,88,dentist,1393,correct,NA,Apr 27 2023 00:24:48,Radhika,1
5baa7,5baa7_session2_listb_naming_trial089_roof.wav,2,b,naming,89,roof,1453,correct,NA,Apr 27 2023 00:25:01,Radhika,1
5baa7,5baa7_session2_listb_naming_trial090_skateboard.wav,2,b,naming,90,skateboard,737,correct,NA,Apr 27 2023 00:26:18,Radhika,1
5baa7,5baa7_session2_listb_naming_trial091_coconut.wav,2,b,naming,91,coconut,765,correct,NA,Apr 27 2023 00:26:47,Radhika,1
5baa7,5baa7_session2_listb_naming_trial092_lab.wav,2,b,naming,92,lab,1411,correct,NA,Apr 27 2023 00:27:13,Radhika,1
5baa7,5baa7_session2_listb_naming_trial093_hedgehog.wav,2,b,naming,93,hedgehog,810,correct,NA,Apr 27 2023 00:27:42,Radhika,1
5baa7,5baa7_session2_listb_naming_trial094_ambulance.wav,2,b,naming,94,ambulance,924,correct,NA,Apr 27 2023 00:28:11,Radhika,1
5baa7,5baa7_session2_listb_naming_trial095_strawberry.wav,2,b,naming,95,strawberry,700,correct,NA,Apr 27 2023 00:28:59,Radhika,1
5baa7,5baa7_session2_listb_naming_trial096_finger.wav,2,b,naming,96,finger,859,correct,NA,Apr 27 2023 00:30:32,Radhika,1
5baa7,5baa7_session2_listb_naming_trial097_boomerang.wav,2,b,naming,97,boomerang,831,correct,NA,Apr 27 2023 00:30:58,Radhika,1
5baa7,5baa7_session2_listb_naming_trial098_hand.wav,2,b,naming,98,hand,698,correct,NA,Apr 27 2023 00:31:29,Radhika,1
5baa7,5baa7_session2_listb_naming_trial099_sink.wav,2,b,naming,99,sink,899,correct,NA,Apr 27 2023 00:32:09,Radhika,1
5baa7,5baa7_session2_listb_naming_trial100_shirt.wav,2,b,naming,100,shirt,850,correct,NA,Apr 27 2023 00:33:21,Radhika,1
5baa7,5baa7_session2_listb_naming_trial101_sock.wav,2,b,naming,101,sock,1139,correct,NA,Apr 27 2023 00:35:10,Radhika,1
5baa7,5baa7_session2_listb_naming_trial102_condom.wav,2,b,naming,102,condom,875,correct,NA,Apr 27 2023 00:35:27,Radhika,1
5baa7,5baa7_session2_listb_naming_trial103_ankle.wav,2,b,naming,103,ankle,929,correct,NA,Apr 27 2023 00:35:58,Radhika,1
5baa7,5baa7_session2_listb_naming_trial104_caravan.wav,2,b,naming,104,caravan,1121,correct,NA,Apr 27 2023 00:36:20,Radhika,1
5baa7,5baa7_session2_listb_naming_trial105_screwdriver.wav,2,b,naming,105,screwdriver,845,correct,NA,Apr 27 2023 00:37:16,Radhika,1
5baa7,5baa7_session2_listb_naming_trial106_banana.wav,2,b,naming,106,banana,681,correct,NA,Apr 27 2023 00:37:30,Radhika,1
5baa7,5baa7_session2_listb_naming_trial107_harp.wav,2,b,naming,107,harp,1021,correct,NA,Apr 27 2023 00:38:05,Radhika,1
5baa7,5baa7_session2_listb_naming_trial108_broccoli.wav,2,b,naming,108,broccoli,775,correct,NA,Apr 27 2023 00:38:19,Radhika,1
5baa7,5baa7_session2_listb_naming_trial109_pool.wav,2,b,naming,109,pool,-1,wrong_word,NA,Apr 27 2023 00:38:27,Radhika,1
5baa7,5baa7_session2_listb_naming_trial110_chair.wav,2,b,naming,110,chair,740,correct,NA,Apr 27 2023 00:38:46,Radhika,1
5baa7,5baa7_session2_listb_naming_trial111_stapler.wav,2,b,naming,111,stapler,823,correct,NA,Apr 27 2023 00:39:15,Radhika,1
5baa7,5baa7_session2_listb_naming_trial112_television.wav,2,b,naming,112,television,1052,correct,NA,Apr 27 2023 00:39:45,Radhika,1
5baa7,5baa7_session2_listb_naming_trial113_iron.wav,2,b,naming,113,iron,978,correct,NA,Apr 27 2023 00:40:13,Radhika,1
5baa7,5baa7_session2_listb_naming_trial114_calculator.wav,2,b,naming,114,calculator,1182,correct,NA,Apr 27 2023 00:40:34,Radhika,1
5baa7,5baa7_session2_listb_naming_trial115_cowboy.wav,2,b,naming,115,cowboy,1045,correct,NA,Apr 27 2023 00:41:11,Radhika,1
5baa7,5baa7_session2_listb_naming_trial116_farm.wav,2,b,naming,116,farm,1155,correct,NA,Apr 27 2023 00:41:53,Radhika,1
5baa7,5baa7_session2_listb_naming_trial117_swimming.wav,2,b,naming,117,swimming,994,correct,NA,Apr 27 2023 00:42:32,Radhika,1
5baa7,5baa7_session2_listb_naming_trial118_devil.wav,2,b,naming,118,devil,822,correct,NA,Apr 27 2023 00:43:45,Radhika,1
5baa7,5baa7_session2_listb_naming_trial119_spider.wav,2,b,naming,119,spider,682,correct,NA,Apr 27 2023 00:44:18,Radhika,1
5baa7,5baa7_session2_listb_naming_trial120_parachute.wav,2,b,naming,120,parachute,-1,wrong_word,NA,Apr 27 2023 00:44:48,Radhika,1
5baa7,5baa7_session2_listb_naming_trial121_cigarette.wav,2,b,naming,121,cigarette,1042,correct,NA,Apr 27 2023 00:46:38,Radhika,1
5baa7,5baa7_session2_listb_naming_trial122_button.wav,2,b,naming,122,button,836,correct,NA,Apr 27 2023 00:47:00,Radhika,1
5baa7,5baa7_session2_listb_naming_trial123_snail.wav,2,b,naming,123,snail,1266,correct,NA,Apr 27 2023 00:47:23,Radhika,1
5baa7,5baa7_session2_listb_naming_trial124_gun.wav,2,b,naming,124,gun,906,correct,NA,Apr 27 2023 00:47:53,Radhika,1
5baa7,5baa7_session2_listb_naming_trial125_skull.wav,2,b,naming,125,skull,1306,correct,NA,Apr 27 2023 00:48:22,Radhika,1
5baa7,5baa7_session2_listb_naming_trial126_foot.wav,2,b,naming,126,foot,830,correct,NA,Apr 27 2023 00:49:40,Radhika,1
5baa7,5baa7_session2_listb_naming_trial127_nose.wav,2,b,naming,127,nose,1327,correct,NA,Apr 27 2023 00:49:52,Radhika,1
5baa7,5baa7_session2_listb_naming_trial128_nun.wav,2,b,naming,128,nun,-1,wrong_word,NA,Apr 27 2023 00:50:00,Radhika,1
5baa7,5baa7_session2_listb_naming_trial129_desert.wav,2,b,naming,129,desert,1498,correct,NA,Apr 27 2023 00:50:23,Radhika,1
5baa7,5baa7_session2_listb_naming_trial130_dragon.wav,2,b,naming,130,dragon,840,correct,NA,Apr 27 2023 00:50:54,Radhika,1
5baa7,5baa7_session2_listb_naming_trial131_umbrella.wav,2,b,naming,131,umbrella,1153,correct,NA,Apr 27 2023 00:51:09,Radhika,1
5baa7,5baa7_session2_listb_naming_trial132_cage.wav,2,b,naming,132,cage,1040,correct,NA,Apr 27 2023 00:51:34,Radhika,1
5baa7,5baa7_session2_listb_naming_trial133_pizza.wav,2,b,naming,133,pizza,945,correct,NA,Apr 27 2023 00:52:14,Radhika,1
5baa7,5baa7_session2_listb_naming_trial134_needle.wav,2,b,naming,134,needle,990,correct,NA,Apr 27 2023 00:52:16,Radhika,1
5baa7,5baa7_session2_listb_naming_trial135_duck.wav,2,b,naming,135,duck,771,correct,NA,Apr 27 2023 00:52:33,Radhika,1
5baa7,5baa7_session2_listb_naming_trial136_man.wav,2,b,naming,136,man,909,correct,NA,Apr 27 2023 00:52:47,Radhika,1
5baa7,5baa7_session2_listb_naming_trial137_moustache.wav,2,b,naming,137,moustache,741,correct,NA,Apr 27 2023 00:53:02,Radhika,1
5baa7,5baa7_session2_listb_naming_trial138_bedroom.wav,2,b,naming,138,bedroom,1603,correct,NA,Apr 27 2023 00:53:23,Radhika,1
5baa7,5baa7_session2_listb_naming_trial139_knee.wav,2,b,naming,139,knee,1060,correct,NA,Apr 27 2023 00:53:37,Radhika,1
5baa7,5baa7_session2_listb_naming_trial140_mask.wav,2,b,naming,140,mask,923,correct,NA,Apr 27 2023 00:53:57,Radhika,1
5baa7,5baa7_session2_listb_naming_trial141_well.wav,2,b,naming,141,well,922,correct,NA,Apr 27 2023 00:54:11,Radhika,1
5baa7,5baa7_session2_listb_naming_trial142_football.wav,2,b,naming,142,football,1140,correct,NA,Apr 27 2023 00:55:15,Radhika,1
5baa7,5baa7_session2_listb_naming_trial143_dolphin.wav,2,b,naming,143,dolphin,814,correct,NA,Apr 27 2023 00:55:41,Radhika,1
5baa7,5baa7_session2_listb_naming_trial144_bat.wav,2,b,naming,144,bat,809,correct,NA,Apr 27 2023 00:55:52,Radhika,1
5baa7,5baa7_session2_listb_naming_trial145_thermometer.wav,2,b,naming,145,thermometer,864,correct,NA,Apr 27 2023 00:56:55,Radhika,1
5baa7,5baa7_session2_listb_naming_trial146_beard.wav,2,b,naming,146,beard,780,correct,NA,Apr 27 2023 00:57:10,Radhika,1
5baa7,5baa7_session2_listb_naming_trial147_waiter.wav,2,b,naming,147,waiter,798,correct,NA,Apr 27 2023 00:57:47,Radhika,1
5baa7,5baa7_session2_listb_naming_trial148_broom.wav,2,b,naming,148,broom,839,correct,NA,Apr 27 2023 00:57:52,Radhika,1
5baa7,5baa7_session2_listb_naming_trial149_airport.wav,2,b,naming,149,airport,2284,correct,NA,Apr 27 2023 00:58:16,Radhika,1
5baa7,5baa7_session2_listb_naming_trial150_brain.wav,2,b,naming,150,brain,972,correct,NA,Apr 27 2023 00:59:06,Radhika,1
