Participant_ID,File_Name,Session,List,Type_Trial,Trial_Nbr,Target,RT,Response_Trial,Comment,Date_Correction,Assessor_Name,Processed
5ee8a,5ee8a_session2_lista_speeded_trial001_donkey.wav,2,a,peeded,1,donkey,728,correct,NA,Apr 28 2023 11:55:52,Agnieszka,1
5ee8a,5ee8a_session2_lista_speeded_trial002_coat.wav,2,a,peeded,2,coat,663,correct,NA,Apr 28 2023 11:56:00,Agnieszka,1
5ee8a,5ee8a_session2_lista_speeded_trial003_rose.wav,2,a,peeded,3,rose,620,correct,NA,Apr 28 2023 11:56:05,Agnieszka,1
5ee8a,5ee8a_session2_lista_speeded_trial004_butter.wav,2,a,peeded,4,butter,746,correct,NA,Apr 28 2023 11:56:11,Agnieszka,1
5ee8a,5ee8a_session2_lista_speeded_trial005_rocket.wav,2,a,peeded,5,rocket,658,correct,NA,Apr 28 2023 11:56:17,Agnieszka,1
5ee8a,5ee8a_session2_lista_speeded_trial006_pepper.wav,2,a,peeded,6,pepper,649,correct,NA,Apr 28 2023 11:56:25,Agnieszka,1
5ee8a,5ee8a_session2_lista_speeded_trial007_bus.wav,2,a,peeded,7,bus,638,correct,NA,Apr 28 2023 11:56:30,Agnieszka,1
5ee8a,5ee8a_session2_lista_speeded_trial008_sword.wav,2,a,peeded,8,sword,616,correct,NA,Apr 28 2023 11:56:38,Agnieszka,1
5ee8a,5ee8a_session2_lista_speeded_trial009_shower.wav,2,a,peeded,9,shower,668,correct,NA,Apr 28 2023 11:56:45,Agnieszka,1
5ee8a,5ee8a_session2_lista_speeded_trial010_owl.wav,2,a,peeded,10,owl,618,correct,NA,Apr 28 2023 11:56:55,Agnieszka,1
5ee8a,5ee8a_session2_lista_speeded_trial011_bike.wav,2,a,peeded,11,bike,630,correct,NA,Apr 28 2023 11:57:01,Agnieszka,1
5ee8a,5ee8a_session2_lista_speeded_trial012_tiger.wav,2,a,peeded,12,tiger,630,correct,NA,Apr 28 2023 11:57:07,Agnieszka,1
5ee8a,5ee8a_session2_lista_speeded_trial013_pineapple.wav,2,a,peeded,13,pineapple,810,correct,NA,Apr 28 2023 11:57:12,Agnieszka,1
5ee8a,5ee8a_session2_lista_speeded_trial014_wave.wav,2,a,peeded,14,wave,721,uncertain,"waves",Apr 28 2023 11:58:13,Agnieszka,1
5ee8a,5ee8a_session2_lista_speeded_trial015_dice.wav,2,a,peeded,15,dice,723,correct,NA,Apr 28 2023 11:58:16,Agnieszka,1
5ee8a,5ee8a_session2_lista_speeded_trial016_lighter.wav,2,a,peeded,16,lighter,762,correct,NA,Apr 28 2023 11:58:19,Agnieszka,1
5ee8a,5ee8a_session2_lista_speeded_trial017_sun.wav,2,a,peeded,17,sun,575,correct,NA,Apr 28 2023 11:58:22,Agnieszka,1
5ee8a,5ee8a_session2_lista_speeded_trial018_train.wav,2,a,peeded,18,train,618,correct,NA,Apr 28 2023 11:58:27,Agnieszka,1
5ee8a,5ee8a_session2_lista_speeded_trial019_bone.wav,2,a,peeded,19,bone,656,correct,NA,Apr 28 2023 11:58:33,Agnieszka,1
5ee8a,5ee8a_session2_lista_speeded_trial020_island.wav,2,a,peeded,20,island,719,correct,NA,Apr 28 2023 11:58:38,Agnieszka,1
5ee8a,5ee8a_session2_lista_speeded_trial021_squirrel.wav,2,a,peeded,21,squirrel,551,correct,NA,Apr 28 2023 11:58:43,Agnieszka,1
5ee8a,5ee8a_session2_lista_speeded_trial022_boxer.wav,2,a,peeded,22,boxer,688,correct,NA,Apr 28 2023 11:58:49,Agnieszka,1
5ee8a,5ee8a_session2_lista_speeded_trial023_heel.wav,2,a,peeded,23,heel,-1,disfluency,NA,Apr 28 2023 11:58:55,Agnieszka,1
5ee8a,5ee8a_session2_lista_speeded_trial024_queen.wav,2,a,peeded,24,queen,638,correct,NA,Apr 28 2023 11:59:00,Agnieszka,1
5ee8a,5ee8a_session2_lista_speeded_trial025_elbow.wav,2,a,peeded,25,elbow,656,correct,NA,Apr 28 2023 11:59:07,Agnieszka,1
5ee8a,5ee8a_session2_lista_speeded_trial026_bench.wav,2,a,peeded,26,bench,629,correct,NA,Apr 28 2023 11:59:14,Agnieszka,1
5ee8a,5ee8a_session2_lista_speeded_trial027_tray.wav,2,a,peeded,27,tray,632,correct,NA,Apr 28 2023 11:59:19,Agnieszka,1
5ee8a,5ee8a_session2_lista_speeded_trial028_sausage.wav,2,a,peeded,28,sausage,600,correct,NA,Apr 28 2023 11:59:25,Agnieszka,1
5ee8a,5ee8a_session2_lista_speeded_trial029_tap.wav,2,a,peeded,29,tap,697,correct,NA,Apr 28 2023 11:59:31,Agnieszka,1
5ee8a,5ee8a_session2_lista_speeded_trial030_ruler.wav,2,a,peeded,30,ruler,640,correct,NA,Apr 28 2023 11:59:37,Agnieszka,1
5ee8a,5ee8a_session2_lista_speeded_trial031_teacher.wav,2,a,peeded,31,teacher,1004,correct,NA,Apr 28 2023 11:59:42,Agnieszka,1
5ee8a,5ee8a_session2_lista_speeded_trial032_bottle.wav,2,a,peeded,32,bottle,665,correct,NA,Apr 28 2023 11:59:53,Agnieszka,1
5ee8a,5ee8a_session2_lista_speeded_trial033_goat.wav,2,a,peeded,33,goat,818,correct,NA,Apr 28 2023 11:59:57,Agnieszka,1
5ee8a,5ee8a_session2_lista_speeded_trial034_mountain.wav,2,a,peeded,34,mountain,695,correct,NA,Apr 28 2023 12:00:03,Agnieszka,1
5ee8a,5ee8a_session2_lista_speeded_trial035_circle.wav,2,a,peeded,35,circle,-1,no_resp,NA,Apr 28 2023 12:00:10,Agnieszka,1
5ee8a,5ee8a_session2_lista_speeded_trial036_kite.wav,2,a,peeded,36,kite,815,correct,NA,Apr 28 2023 12:00:21,Agnieszka,1
5ee8a,5ee8a_session2_lista_speeded_trial037_flower.wav,2,a,peeded,37,flower,612,correct,NA,Apr 28 2023 12:00:30,Agnieszka,1
5ee8a,5ee8a_session2_lista_speeded_trial038_hippo.wav,2,a,peeded,38,hippo,632,correct,NA,Apr 28 2023 12:00:41,Agnieszka,1
5ee8a,5ee8a_session2_lista_speeded_trial039_arm.wav,2,a,peeded,39,arm,703,correct,NA,Apr 28 2023 12:00:53,Agnieszka,1
5ee8a,5ee8a_session2_lista_speeded_trial040_basket.wav,2,a,peeded,40,basket,661,correct,NA,Apr 28 2023 12:00:59,Agnieszka,1
5ee8a,5ee8a_session2_lista_speeded_trial041_computer.wav,2,a,peeded,41,computer,-1,wrong_word,NA,Apr 28 2023 12:01:05,Agnieszka,1
5ee8a,5ee8a_session2_lista_speeded_trial042_clown.wav,2,a,peeded,42,clown,746,correct,NA,Apr 28 2023 12:01:18,Agnieszka,1
5ee8a,5ee8a_session2_lista_speeded_trial043_gym.wav,2,a,peeded,43,gym,957,correct,NA,Apr 28 2023 12:01:26,Agnieszka,1
5ee8a,5ee8a_session2_lista_speeded_trial044_shield.wav,2,a,peeded,44,shield,663,correct,NA,Apr 28 2023 12:01:31,Agnieszka,1
5ee8a,5ee8a_session2_lista_speeded_trial045_kangaroo.wav,2,a,peeded,45,kangaroo,730,correct,NA,Apr 28 2023 12:01:38,Agnieszka,1
5ee8a,5ee8a_session2_lista_speeded_trial046_comb.wav,2,a,peeded,46,comb,623,correct,NA,Apr 28 2023 12:01:43,Agnieszka,1
5ee8a,5ee8a_session2_lista_speeded_trial047_curtain.wav,2,a,peeded,47,curtain,667,correct,NA,Apr 28 2023 12:01:48,Agnieszka,1
5ee8a,5ee8a_session2_lista_speeded_trial048_potato.wav,2,a,peeded,48,potato,620,correct,NA,Apr 28 2023 12:01:56,Agnieszka,1
5ee8a,5ee8a_session2_lista_speeded_trial049_shoe.wav,2,a,peeded,49,shoe,605,correct,NA,Apr 28 2023 12:02:02,Agnieszka,1
5ee8a,5ee8a_session2_lista_speeded_trial050_scissors.wav,2,a,peeded,50,scissors,551,correct,NA,Apr 28 2023 12:02:07,Agnieszka,1
5ee8a,5ee8a_session2_lista_speeded_trial051_zebra.wav,2,a,peeded,51,zebra,638,correct,NA,Apr 28 2023 12:02:12,Agnieszka,1
5ee8a,5ee8a_session2_lista_speeded_trial052_hat.wav,2,a,peeded,52,hat,553,correct,NA,Apr 28 2023 12:02:18,Agnieszka,1
5ee8a,5ee8a_session2_lista_speeded_trial053_puppet.wav,2,a,peeded,53,puppet,795,correct,NA,Apr 28 2023 12:02:24,Agnieszka,1
5ee8a,5ee8a_session2_lista_speeded_trial054_pear.wav,2,a,peeded,54,pear,706,correct,NA,Apr 28 2023 12:02:30,Agnieszka,1
5ee8a,5ee8a_session2_lista_speeded_trial055_net.wav,2,a,peeded,55,net,672,correct,NA,Apr 28 2023 12:02:37,Agnieszka,1
5ee8a,5ee8a_session2_lista_speeded_trial056_key.wav,2,a,peeded,56,key,668,correct,NA,Apr 28 2023 12:02:48,Agnieszka,1
5ee8a,5ee8a_session2_lista_speeded_trial057_fireplace.wav,2,a,peeded,57,fireplace,652,correct,NA,Apr 28 2023 12:02:54,Agnieszka,1
5ee8a,5ee8a_session2_lista_speeded_trial058_flipper.wav,2,a,peeded,58,flipper,968,correct,NA,Apr 28 2023 12:03:02,Agnieszka,1
5ee8a,5ee8a_session2_lista_speeded_trial059_butterfly.wav,2,a,peeded,59,butterfly,717,correct,NA,Apr 28 2023 12:03:09,Agnieszka,1
5ee8a,5ee8a_session2_lista_speeded_trial060_fork.wav,2,a,peeded,60,fork,602,correct,NA,Apr 28 2023 12:03:28,Agnieszka,1
5ee8a,5ee8a_session2_lista_speeded_trial061_ear.wav,2,a,peeded,61,ear,598,correct,NA,Apr 28 2023 12:03:41,Agnieszka,1
5ee8a,5ee8a_session2_lista_speeded_trial062_castle.wav,2,a,peeded,62,castle,649,correct,NA,Apr 28 2023 12:03:47,Agnieszka,1
5ee8a,5ee8a_session2_lista_speeded_trial063_mermaid.wav,2,a,peeded,63,mermaid,692,correct,NA,Apr 28 2023 12:03:52,Agnieszka,1
5ee8a,5ee8a_session2_lista_speeded_trial064_cork.wav,2,a,peeded,64,cork,824,correct,NA,Apr 28 2023 12:03:57,Agnieszka,1
5ee8a,5ee8a_session2_lista_speeded_trial065_book.wav,2,a,peeded,65,book,683,correct,NA,Apr 28 2023 12:04:03,Agnieszka,1
5ee8a,5ee8a_session2_lista_speeded_trial066_windmill.wav,2,a,peeded,66,windmill,937,correct,NA,Apr 28 2023 12:04:08,Agnieszka,1
5ee8a,5ee8a_session2_lista_speeded_trial067_jellyfish.wav,2,a,peeded,67,jellyfish,-1,disfluency,NA,Apr 28 2023 12:04:16,Agnieszka,1
5ee8a,5ee8a_session2_lista_speeded_trial068_orange.wav,2,a,peeded,68,orange,-1,wrong_word,NA,Apr 28 2023 12:04:20,Agnieszka,1
5ee8a,5ee8a_session2_lista_speeded_trial069_whale.wav,2,a,peeded,69,whale,706,correct,NA,Apr 28 2023 12:04:25,Agnieszka,1
5ee8a,5ee8a_session2_lista_speeded_trial070_map.wav,2,a,peeded,70,map,728,correct,NA,Apr 28 2023 12:04:29,Agnieszka,1
5ee8a,5ee8a_session2_lista_speeded_trial071_caterpillar.wav,2,a,peeded,71,caterpillar,726,correct,NA,Apr 28 2023 12:04:39,Agnieszka,1
5ee8a,5ee8a_session2_lista_speeded_trial072_soap.wav,2,a,peeded,72,soap,699,correct,NA,Apr 28 2023 12:04:44,Agnieszka,1
5ee8a,5ee8a_session2_lista_speeded_trial073_submarine.wav,2,a,peeded,73,submarine,952,correct,NA,Apr 28 2023 12:04:49,Agnieszka,1
5ee8a,5ee8a_session2_lista_speeded_trial074_kitchen.wav,2,a,peeded,74,kitchen,784,correct,NA,Apr 28 2023 12:04:55,Agnieszka,1
5ee8a,5ee8a_session2_lista_speeded_trial075_wall.wav,2,a,peeded,75,wall,697,correct,NA,Apr 28 2023 12:05:04,Agnieszka,1
5ee8a,5ee8a_session2_lista_speeded_trial076_pipe.wav,2,a,peeded,76,pipe,609,correct,NA,Apr 28 2023 12:05:19,Agnieszka,1
5ee8a,5ee8a_session2_lista_speeded_trial077_star.wav,2,a,peeded,77,star,571,correct,NA,Apr 28 2023 12:05:27,Agnieszka,1
5ee8a,5ee8a_session2_lista_speeded_trial078_carrot.wav,2,a,peeded,78,carrot,580,correct,NA,Apr 28 2023 12:05:32,Agnieszka,1
5ee8a,5ee8a_session2_lista_speeded_trial079_camel.wav,2,a,peeded,79,camel,777,correct,NA,Apr 28 2023 12:05:41,Agnieszka,1
5ee8a,5ee8a_session2_lista_speeded_trial080_zip.wav,2,a,peeded,80,zip,668,correct,NA,Apr 28 2023 12:05:47,Agnieszka,1
5ee8a,5ee8a_session2_lista_speeded_trial081_cherry.wav,2,a,peeded,81,cherry,694,correct,NA,Apr 28 2023 12:05:52,Agnieszka,1
5ee8a,5ee8a_session2_lista_speeded_trial082_bull.wav,2,a,peeded,82,bull,955,correct,NA,Apr 28 2023 12:05:58,Agnieszka,1
5ee8a,5ee8a_session2_lista_speeded_trial083_pocket.wav,2,a,peeded,83,pocket,1040,uncertain,"pockets",Apr 28 2023 12:06:15,Agnieszka,1
5ee8a,5ee8a_session2_lista_speeded_trial084_flag.wav,2,a,peeded,84,flag,652,correct,NA,Apr 28 2023 12:06:20,Agnieszka,1
5ee8a,5ee8a_session2_lista_speeded_trial085_lung.wav,2,a,peeded,85,lung,861,correct,NA,Apr 28 2023 12:06:26,Agnieszka,1
5ee8a,5ee8a_session2_lista_speeded_trial086_rhino.wav,2,a,peeded,86,rhino,750,correct,NA,Apr 28 2023 12:06:34,Agnieszka,1
5ee8a,5ee8a_session2_lista_speeded_trial087_tongue.wav,2,a,peeded,87,tongue,741,correct,NA,Apr 28 2023 12:06:41,Agnieszka,1
5ee8a,5ee8a_session2_lista_speeded_trial088_swan.wav,2,a,peeded,88,swan,710,correct,NA,Apr 28 2023 12:06:46,Agnieszka,1
5ee8a,5ee8a_session2_lista_speeded_trial089_candle.wav,2,a,peeded,89,candle,647,correct,NA,Apr 28 2023 12:06:55,Agnieszka,1
5ee8a,5ee8a_session2_lista_speeded_trial090_koala.wav,2,a,peeded,90,koala,748,correct,NA,Apr 28 2023 12:07:03,Agnieszka,1
5ee8a,5ee8a_session2_lista_speeded_trial091_limo.wav,2,a,peeded,91,limo,661,correct,NA,Apr 28 2023 12:07:11,Agnieszka,1
5ee8a,5ee8a_session2_lista_speeded_trial092_bear.wav,2,a,peeded,92,bear,757,correct,NA,Apr 28 2023 12:07:18,Agnieszka,1
5ee8a,5ee8a_session2_lista_speeded_trial093_drawer.wav,2,a,peeded,93,drawer,910,correct,NA,Apr 28 2023 12:07:24,Agnieszka,1
5ee8a,5ee8a_session2_lista_speeded_trial094_drum.wav,2,a,peeded,94,drum,692,correct,NA,Apr 28 2023 12:07:34,Agnieszka,1
5ee8a,5ee8a_session2_lista_speeded_trial095_lawnmower.wav,2,a,peeded,95,lawnmower,737,correct,NA,Apr 28 2023 12:07:40,Agnieszka,1
5ee8a,5ee8a_session2_lista_speeded_trial096_crab.wav,2,a,peeded,96,crab,611,correct,NA,Apr 28 2023 12:07:49,Agnieszka,1
5ee8a,5ee8a_session2_lista_speeded_trial097_fridge.wav,2,a,peeded,97,fridge,627,correct,NA,Apr 28 2023 12:07:56,Agnieszka,1
5ee8a,5ee8a_session2_lista_speeded_trial098_tunnel.wav,2,a,peeded,98,tunnel,737,correct,NA,Apr 28 2023 12:08:01,Agnieszka,1
5ee8a,5ee8a_session2_lista_speeded_trial099_tie.wav,2,a,peeded,99,tie,658,correct,NA,Apr 28 2023 12:08:08,Agnieszka,1
5ee8a,5ee8a_session2_lista_speeded_trial100_thumb.wav,2,a,peeded,100,thumb,618,correct,NA,Apr 28 2023 12:08:14,Agnieszka,1
5ee8a,5ee8a_session2_lista_speeded_trial101_fairy.wav,2,a,peeded,101,fairy,688,correct,NA,Apr 28 2023 12:08:20,Agnieszka,1
5ee8a,5ee8a_session2_lista_speeded_trial102_olive.wav,2,a,peeded,102,olive,901,correct,NA,Apr 28 2023 12:08:25,Agnieszka,1
5ee8a,5ee8a_session2_lista_speeded_trial103_apple.wav,2,a,peeded,103,apple,786,correct,NA,Apr 28 2023 12:08:32,Agnieszka,1
5ee8a,5ee8a_session2_lista_speeded_trial104_glove.wav,2,a,peeded,104,glove,658,correct,NA,Apr 28 2023 12:08:44,Agnieszka,1
5ee8a,5ee8a_session2_lista_speeded_trial105_triangle.wav,2,a,peeded,105,triangle,598,correct,NA,Apr 28 2023 12:08:52,Agnieszka,1
5ee8a,5ee8a_session2_lista_speeded_trial106_bib.wav,2,a,peeded,106,bib,896,correct,NA,Apr 28 2023 12:08:58,Agnieszka,1
5ee8a,5ee8a_session2_lista_speeded_trial107_suit.wav,2,a,peeded,107,suit,701,correct,NA,Apr 28 2023 12:09:04,Agnieszka,1
5ee8a,5ee8a_session2_lista_speeded_trial108_plumber.wav,2,a,peeded,108,plumber,851,correct,NA,Apr 28 2023 12:09:09,Agnieszka,1
5ee8a,5ee8a_session2_lista_speeded_trial109_arrow.wav,2,a,peeded,109,arrow,683,correct,NA,Apr 28 2023 12:09:23,Agnieszka,1
5ee8a,5ee8a_session2_lista_speeded_trial110_skirt.wav,2,a,peeded,110,skirt,679,correct,NA,Apr 28 2023 12:09:28,Agnieszka,1
5ee8a,5ee8a_session2_lista_speeded_trial111_battery.wav,2,a,peeded,111,battery,703,correct,NA,Apr 28 2023 12:09:36,Agnieszka,1
5ee8a,5ee8a_session2_lista_speeded_trial112_magnet.wav,2,a,peeded,112,magnet,723,correct,NA,Apr 28 2023 12:09:43,Agnieszka,1
5ee8a,5ee8a_session2_lista_speeded_trial113_bell.wav,2,a,peeded,113,bell,759,correct,NA,Apr 28 2023 12:09:50,Agnieszka,1
5ee8a,5ee8a_session2_lista_speeded_trial114_robot.wav,2,a,peeded,114,robot,688,correct,NA,Apr 28 2023 12:09:55,Agnieszka,1
5ee8a,5ee8a_session2_lista_speeded_trial115_sweet.wav,2,a,peeded,115,sweet,638,correct,NA,Apr 28 2023 12:10:02,Agnieszka,1
5ee8a,5ee8a_session2_lista_speeded_trial116_snake.wav,2,a,peeded,116,snake,589,correct,NA,Apr 28 2023 12:10:09,Agnieszka,1
5ee8a,5ee8a_session2_lista_speeded_trial117_wheelbarrow.wav,2,a,peeded,117,wheelbarrow,710,correct,NA,Apr 28 2023 12:10:19,Agnieszka,1
5ee8a,5ee8a_session2_lista_speeded_trial118_helicopter.wav,2,a,peeded,118,helicopter,602,correct,NA,Apr 28 2023 12:10:30,Agnieszka,1
5ee8a,5ee8a_session2_lista_speeded_trial119_onion.wav,2,a,peeded,119,onion,712,correct,NA,Apr 28 2023 12:10:37,Agnieszka,1
5ee8a,5ee8a_session2_lista_speeded_trial120_doctor.wav,2,a,peeded,120,doctor,907,correct,NA,Apr 28 2023 12:10:42,Agnieszka,1
5ee8a,5ee8a_session2_lista_speeded_trial121_lighthouse.wav,2,a,peeded,121,lighthouse,858,correct,NA,Apr 28 2023 12:10:52,Agnieszka,1
5ee8a,5ee8a_session2_lista_speeded_trial122_tree.wav,2,a,peeded,122,tree,641,correct,NA,Apr 28 2023 12:10:58,Agnieszka,1
5ee8a,5ee8a_session2_lista_speeded_trial123_saw.wav,2,a,peeded,123,saw,661,correct,NA,Apr 28 2023 12:11:04,Agnieszka,1
5ee8a,5ee8a_session2_lista_speeded_trial124_avocado.wav,2,a,peeded,124,avocado,968,correct,NA,Apr 28 2023 12:11:13,Agnieszka,1
5ee8a,5ee8a_session2_lista_speeded_trial125_compass.wav,2,a,peeded,125,compass,912,correct,NA,Apr 28 2023 12:11:20,Agnieszka,1
5ee8a,5ee8a_session2_lista_speeded_trial126_bracelet.wav,2,a,peeded,126,bracelet,737,correct,NA,Apr 28 2023 12:11:27,Agnieszka,1
5ee8a,5ee8a_session2_lista_speeded_trial127_doughnut.wav,2,a,peeded,127,doughnut,789,correct,NA,Apr 28 2023 12:11:34,Agnieszka,1
5ee8a,5ee8a_session2_lista_speeded_trial128_ghost.wav,2,a,peeded,128,ghost,667,correct,NA,Apr 28 2023 12:11:39,Agnieszka,1
5ee8a,5ee8a_session2_lista_speeded_trial129_tractor.wav,2,a,peeded,129,tractor,659,correct,NA,Apr 28 2023 12:11:44,Agnieszka,1
5ee8a,5ee8a_session2_lista_speeded_trial130_bullet.wav,2,a,peeded,130,bullet,964,correct,NA,Apr 28 2023 12:11:50,Agnieszka,1
5ee8a,5ee8a_session2_lista_speeded_trial131_nest.wav,2,a,peeded,131,nest,800,correct,NA,Apr 28 2023 12:11:55,Agnieszka,1
5ee8a,5ee8a_session2_lista_speeded_trial132_knife.wav,2,a,peeded,132,knife,732,correct,NA,Apr 28 2023 12:12:02,Agnieszka,1
5ee8a,5ee8a_session2_lista_speeded_trial133_medal.wav,2,a,peeded,133,medal,728,correct,NA,Apr 28 2023 12:12:08,Agnieszka,1
5ee8a,5ee8a_session2_lista_speeded_trial134_suitcase.wav,2,a,peeded,134,suitcase,-1,wrong_word,NA,Apr 28 2023 12:12:13,Agnieszka,1
5ee8a,5ee8a_session2_lista_speeded_trial135_dress.wav,2,a,peeded,135,dress,888,correct,NA,Apr 28 2023 12:12:19,Agnieszka,1
5ee8a,5ee8a_session2_lista_speeded_trial136_tomato.wav,2,a,peeded,136,tomato,667,correct,NA,Apr 28 2023 12:12:25,Agnieszka,1
5ee8a,5ee8a_session2_lista_speeded_trial137_lamp.wav,2,a,peeded,137,lamp,609,correct,NA,Apr 28 2023 12:12:32,Agnieszka,1
5ee8a,5ee8a_session2_lista_speeded_trial138_dummy.wav,2,a,peeded,138,dummy,800,correct,NA,Apr 28 2023 12:12:38,Agnieszka,1
5ee8a,5ee8a_session2_lista_speeded_trial139_kiwi.wav,2,a,peeded,139,kiwi,1127,correct,NA,Apr 28 2023 12:12:44,Agnieszka,1
5ee8a,5ee8a_session2_lista_speeded_trial140_tambourine.wav,2,a,peeded,140,tambourine,1137,correct,ending cut off,Apr 28 2023 12:12:55,Agnieszka,1
5ee8a,5ee8a_session2_lista_speeded_trial141_pencil.wav,2,a,peeded,141,pencil,627,correct,NA,Apr 28 2023 12:13:01,Agnieszka,1
5ee8a,5ee8a_session2_lista_speeded_trial142_fence.wav,2,a,peeded,142,fence,647,correct,NA,Apr 28 2023 12:13:08,Agnieszka,1
5ee8a,5ee8a_session2_lista_speeded_trial143_peg.wav,2,a,peeded,143,peg,771,correct,NA,Apr 28 2023 12:13:14,Agnieszka,1
5ee8a,5ee8a_session2_lista_speeded_trial144_tattoo.wav,2,a,peeded,144,tattoo,869,correct,NA,Apr 28 2023 12:13:20,Agnieszka,1
5ee8a,5ee8a_session2_lista_speeded_trial145_rabbit.wav,2,a,peeded,145,rabbit,621,correct,NA,Apr 28 2023 12:13:25,Agnieszka,1
5ee8a,5ee8a_session2_lista_speeded_trial146_mouth.wav,2,a,peeded,146,mouth,939,correct,NA,Apr 28 2023 12:13:31,Agnieszka,1
5ee8a,5ee8a_session2_lista_speeded_trial147_judge.wav,2,a,peeded,147,judge,1065,correct,NA,Apr 28 2023 12:13:37,Agnieszka,1
5ee8a,5ee8a_session2_lista_speeded_trial148_beak.wav,2,a,peeded,148,beak,836,correct,NA,Apr 28 2023 12:13:42,Agnieszka,1
5ee8a,5ee8a_session2_lista_speeded_trial149_fox.wav,2,a,peeded,149,fox,640,correct,NA,Apr 28 2023 12:13:51,Agnieszka,1
5ee8a,5ee8a_session2_lista_speeded_trial150_wing.wav,2,a,peeded,150,wing,750,correct,NA,Apr 28 2023 12:13:59,Agnieszka,1
