Participant_ID,File_Name,Session,List,Type_Trial,Trial_Nbr,Target,RT,Response_Trial,Comment,Date_Correction,Assessor_Name,Processed
5f021,5f021_session2_lista_speeded_trial001_goat.wav,2,a,peeded,1,goat,816,correct,NA,May  5 2023 23:46:05,Doris,1
5f021,5f021_session2_lista_speeded_trial002_lawnmower.wav,2,a,peeded,2,lawnmower,715,correct,NA,May  5 2023 23:46:54,Doris,1
5f021,5f021_session2_lista_speeded_trial003_fireplace.wav,2,a,peeded,3,fireplace,836,correct,NA,May  5 2023 23:47:24,Doris,1
5f021,5f021_session2_lista_speeded_trial004_pocket.wav,2,a,peeded,4,pocket,1264,correct,NA,May  5 2023 23:47:53,Doris,1
5f021,5f021_session2_lista_speeded_trial005_swan.wav,2,a,peeded,5,swan,678,correct,NA,May  5 2023 23:48:30,Doris,1
5f021,5f021_session2_lista_speeded_trial006_fork.wav,2,a,peeded,6,fork,507,correct,NA,May  5 2023 23:49:12,Doris,1
5f021,5f021_session2_lista_speeded_trial007_fence.wav,2,a,peeded,7,fence,746,correct,NA,May  5 2023 23:49:52,Doris,1
5f021,5f021_session2_lista_speeded_trial008_helicopter.wav,2,a,peeded,8,helicopter,637,correct,NA,May  5 2023 23:50:25,Doris,1
5f021,5f021_session2_lista_speeded_trial009_tomato.wav,2,a,peeded,9,tomato,-1,disfluency,only stutters of the required word,May  5 2023 23:50:45,Doris,1
5f021,5f021_session2_lista_speeded_trial010_flag.wav,2,a,peeded,10,flag,724,correct,NA,May  6 2023 14:37:11,Doris,1
5f021,5f021_session2_lista_speeded_trial011_bull.wav,2,a,peeded,11,bull,930,correct,NA,May  6 2023 14:37:37,Doris,1
5f021,5f021_session2_lista_speeded_trial012_drum.wav,2,a,peeded,12,drum,1039,correct,NA,May  6 2023 14:38:03,Doris,1
5f021,5f021_session2_lista_speeded_trial013_doughnut.wav,2,a,peeded,13,doughnut,834,correct,NA,May  6 2023 14:38:27,Doris,1
5f021,5f021_session2_lista_speeded_trial014_elbow.wav,2,a,peeded,14,elbow,734,correct,NA,May  6 2023 14:38:58,Doris,1
5f021,5f021_session2_lista_speeded_trial015_train.wav,2,a,peeded,15,train,789,correct,NA,May  6 2023 14:39:23,Doris,1
5f021,5f021_session2_lista_speeded_trial016_robot.wav,2,a,peeded,16,robot,676,correct,NA,May  6 2023 14:39:46,Doris,1
5f021,5f021_session2_lista_speeded_trial017_bus.wav,2,a,peeded,17,bus,623,correct,NA,May  6 2023 14:40:12,Doris,1
5f021,5f021_session2_lista_speeded_trial018_island.wav,2,a,peeded,18,island,725,correct,NA,May  6 2023 14:40:46,Doris,1
5f021,5f021_session2_lista_speeded_trial019_tie.wav,2,a,peeded,19,tie,684,correct,NA,May  6 2023 14:41:04,Doris,1
5f021,5f021_session2_lista_speeded_trial020_rhino.wav,2,a,peeded,20,rhino,919,correct,NA,May  6 2023 14:41:26,Doris,1
5f021,5f021_session2_lista_speeded_trial021_key.wav,2,a,peeded,21,key,650,correct,NA,May  6 2023 14:41:53,Doris,1
5f021,5f021_session2_lista_speeded_trial022_flipper.wav,2,a,peeded,22,flipper,830,correct,NA,May  6 2023 14:43:33,Doris,1
5f021,5f021_session2_lista_speeded_trial023_bib.wav,2,a,peeded,23,bib,890,correct,NA,May  6 2023 14:44:05,Doris,1
5f021,5f021_session2_lista_speeded_trial024_gym.wav,2,a,peeded,24,gym,970,correct,NA,May  6 2023 14:44:39,Doris,1
5f021,5f021_session2_lista_speeded_trial025_coat.wav,2,a,peeded,25,coat,877,correct,NA,May  6 2023 14:45:07,Doris,1
5f021,5f021_session2_lista_speeded_trial026_flower.wav,2,a,peeded,26,flower,805,correct,NA,May  6 2023 14:45:30,Doris,1
5f021,5f021_session2_lista_speeded_trial027_rabbit.wav,2,a,peeded,27,rabbit,766,correct,NA,May  6 2023 14:45:58,Doris,1
5f021,5f021_session2_lista_speeded_trial028_nest.wav,2,a,peeded,28,nest,744,correct,NA,May  6 2023 14:46:26,Doris,1
5f021,5f021_session2_lista_speeded_trial029_shield.wav,2,a,peeded,29,shield,693,correct,NA,May  6 2023 14:47:20,Doris,1
5f021,5f021_session2_lista_speeded_trial030_circle.wav,2,a,peeded,30,circle,-1,no_resp,NA,May  6 2023 14:47:29,Doris,1
5f021,5f021_session2_lista_speeded_trial031_skirt.wav,2,a,peeded,31,skirt,844,correct,NA,May  6 2023 14:48:02,Doris,1
5f021,5f021_session2_lista_speeded_trial032_bone.wav,2,a,peeded,32,bone,732,correct,NA,May  6 2023 14:48:20,Doris,1
5f021,5f021_session2_lista_speeded_trial033_basket.wav,2,a,peeded,33,basket,660,correct,NA,May  6 2023 14:48:42,Doris,1
5f021,5f021_session2_lista_speeded_trial034_pipe.wav,2,a,peeded,34,pipe,733,correct,NA,May  6 2023 14:49:01,Doris,1
5f021,5f021_session2_lista_speeded_trial035_tambourine.wav,2,a,peeded,35,tambourine,782,correct,NA,May  6 2023 14:49:28,Doris,1
5f021,5f021_session2_lista_speeded_trial036_tractor.wav,2,a,peeded,36,tractor,658,correct,NA,May  6 2023 14:49:54,Doris,1
5f021,5f021_session2_lista_speeded_trial037_limo.wav,2,a,peeded,37,limo,710,correct,NA,May  6 2023 14:50:56,Doris,1
5f021,5f021_session2_lista_speeded_trial038_pencil.wav,2,a,peeded,38,pencil,638,correct,NA,May  6 2023 14:51:13,Doris,1
5f021,5f021_session2_lista_speeded_trial039_tattoo.wav,2,a,peeded,39,tattoo,-1,disfluency,used the article; the offset of the word is not recorder ,May  6 2023 14:52:02,Doris,1
5f021,5f021_session2_lista_speeded_trial040_mountain.wav,2,a,peeded,40,mountain,820,correct,NA,May  6 2023 14:52:38,Doris,1
5f021,5f021_session2_lista_speeded_trial041_wall.wav,2,a,peeded,41,wall,727,correct,NA,May  6 2023 15:10:11,Doris,1
5f021,5f021_session2_lista_speeded_trial042_comb.wav,2,a,peeded,42,comb,657,correct,NA,May  6 2023 15:10:36,Doris,1
5f021,5f021_session2_lista_speeded_trial043_kiwi.wav,2,a,peeded,43,kiwi,786,correct,NA,May  6 2023 15:11:38,Doris,1
5f021,5f021_session2_lista_speeded_trial044_dummy.wav,2,a,peeded,44,dummy,-1,wrong_word,NA,May  6 2023 15:11:48,Doris,1
5f021,5f021_session2_lista_speeded_trial045_wave.wav,2,a,peeded,45,wave,1345,correct,NA,May  6 2023 15:12:22,Doris,1
5f021,5f021_session2_lista_speeded_trial046_onion.wav,2,a,peeded,46,onion,750,correct,NA,May  6 2023 15:12:55,Doris,1
5f021,5f021_session2_lista_speeded_trial047_bike.wav,2,a,peeded,47,bike,677,correct,NA,May  6 2023 15:13:54,Doris,1
5f021,5f021_session2_lista_speeded_trial048_plumber.wav,2,a,peeded,48,plumber,894,correct,pronounced the /b/ in plumber,May  6 2023 15:14:47,Doris,1
5f021,5f021_session2_lista_speeded_trial049_hat.wav,2,a,peeded,49,hat,684,correct,NA,May  6 2023 15:15:38,Doris,1
5f021,5f021_session2_lista_speeded_trial050_boxer.wav,2,a,peeded,50,boxer,760,correct,NA,May  6 2023 15:15:57,Doris,1
5f021,5f021_session2_lista_speeded_trial051_candle.wav,2,a,peeded,51,candle,662,correct,NA,May  6 2023 15:16:24,Doris,1
5f021,5f021_session2_lista_speeded_trial052_computer.wav,2,a,peeded,52,computer,714,correct,NA,May  6 2023 15:16:50,Doris,1
5f021,5f021_session2_lista_speeded_trial053_lung.wav,2,a,peeded,53,lung,1003,correct,NA,May  6 2023 15:17:28,Doris,1
5f021,5f021_session2_lista_speeded_trial054_wheelbarrow.wav,2,a,peeded,54,wheelbarrow,880,correct,NA,May  6 2023 15:17:58,Doris,1
5f021,5f021_session2_lista_speeded_trial055_rocket.wav,2,a,peeded,55,rocket,704,correct,NA,May  6 2023 15:18:49,Doris,1
5f021,5f021_session2_lista_speeded_trial056_glove.wav,2,a,peeded,56,glove,686,correct,NA,May  6 2023 15:19:26,Doris,1
5f021,5f021_session2_lista_speeded_trial057_sausage.wav,2,a,peeded,57,sausage,739,correct,NA,May  6 2023 15:19:48,Doris,1
5f021,5f021_session2_lista_speeded_trial058_lamp.wav,2,a,peeded,58,lamp,768,correct,NA,May  6 2023 15:20:27,Doris,1
5f021,5f021_session2_lista_speeded_trial059_mouth.wav,2,a,peeded,59,mouth,689,correct,NA,May  6 2023 15:22:33,Doris,1
5f021,5f021_session2_lista_speeded_trial060_kangaroo.wav,2,a,peeded,60,kangaroo,688,correct,NA,May  6 2023 17:37:33,Doris,1
5f021,5f021_session2_lista_speeded_trial061_avocado.wav,2,a,peeded,61,avocado,1144,correct,NA,May  6 2023 17:38:19,Doris,1
5f021,5f021_session2_lista_speeded_trial062_butterfly.wav,2,a,peeded,62,butterfly,857,correct,NA,May  6 2023 17:38:36,Doris,1
5f021,5f021_session2_lista_speeded_trial063_camel.wav,2,a,peeded,63,camel,819,correct,NA,May  6 2023 17:38:52,Doris,1
5f021,5f021_session2_lista_speeded_trial064_carrot.wav,2,a,peeded,64,carrot,703,correct,NA,May  6 2023 17:39:12,Doris,1
5f021,5f021_session2_lista_speeded_trial065_book.wav,2,a,peeded,65,book,707,correct,NA,May  6 2023 17:39:29,Doris,1
5f021,5f021_session2_lista_speeded_trial066_ghost.wav,2,a,peeded,66,ghost,742,correct,NA,May  6 2023 17:39:56,Doris,1
5f021,5f021_session2_lista_speeded_trial067_jellyfish.wav,2,a,peeded,67,jellyfish,826,correct,NA,May  6 2023 17:40:50,Doris,1
5f021,5f021_session2_lista_speeded_trial068_shower.wav,2,a,peeded,68,shower,777,correct,NA,May  6 2023 17:42:09,Doris,1
5f021,5f021_session2_lista_speeded_trial069_crab.wav,2,a,peeded,69,crab,706,correct,NA,May  6 2023 17:42:23,Doris,1
5f021,5f021_session2_lista_speeded_trial070_cherry.wav,2,a,peeded,70,cherry,678,correct,NA,May  6 2023 17:43:00,Doris,1
5f021,5f021_session2_lista_speeded_trial071_drawer.wav,2,a,peeded,71,drawer,707,correct,NA,May  6 2023 17:43:38,Doris,1
5f021,5f021_session2_lista_speeded_trial072_shoe.wav,2,a,peeded,72,shoe,699,correct,NA,May  6 2023 17:44:22,Doris,1
5f021,5f021_session2_lista_speeded_trial073_tree.wav,2,a,peeded,73,tree,819,correct,NA,May  6 2023 17:45:18,Doris,1
5f021,5f021_session2_lista_speeded_trial074_bottle.wav,2,a,peeded,74,bottle,723,correct,NA,May  6 2023 17:45:33,Doris,1
5f021,5f021_session2_lista_speeded_trial075_tongue.wav,2,a,peeded,75,tongue,1066,correct,NA,May  6 2023 17:46:07,Doris,1
5f021,5f021_session2_lista_speeded_trial076_saw.wav,2,a,peeded,76,saw,810,correct,NA,May  6 2023 17:46:20,Doris,1
5f021,5f021_session2_lista_speeded_trial077_medal.wav,2,a,peeded,77,medal,753,correct,NA,May  6 2023 17:46:42,Doris,1
5f021,5f021_session2_lista_speeded_trial078_lighter.wav,2,a,peeded,78,lighter,1059,correct,NA,May  6 2023 17:47:01,Doris,1
5f021,5f021_session2_lista_speeded_trial079_zip.wav,2,a,peeded,79,zip,1032,correct,NA,May  6 2023 17:47:20,Doris,1
5f021,5f021_session2_lista_speeded_trial080_sword.wav,2,a,peeded,80,sword,769,correct,NA,May  6 2023 17:47:44,Doris,1
5f021,5f021_session2_lista_speeded_trial081_pepper.wav,2,a,peeded,81,pepper,1185,correct,NA,May  6 2023 17:48:05,Doris,1
5f021,5f021_session2_lista_speeded_trial082_cork.wav,2,a,peeded,82,cork,943,correct,NA,May  6 2023 17:48:23,Doris,1
5f021,5f021_session2_lista_speeded_trial083_dress.wav,2,a,peeded,83,dress,1111,correct,NA,May  6 2023 17:48:43,Doris,1
5f021,5f021_session2_lista_speeded_trial084_peg.wav,2,a,peeded,84,peg,943,correct,NA,May  6 2023 17:50:27,Doris,1
5f021,5f021_session2_lista_speeded_trial085_kite.wav,2,a,peeded,85,kite,823,correct,NA,May  6 2023 17:50:49,Doris,1
5f021,5f021_session2_lista_speeded_trial086_teacher.wav,2,a,peeded,86,teacher,751,correct,NA,May  6 2023 17:51:53,Doris,1
5f021,5f021_session2_lista_speeded_trial087_ear.wav,2,a,peeded,87,ear,743,correct,NA,May  6 2023 17:52:22,Doris,1
5f021,5f021_session2_lista_speeded_trial088_donkey.wav,2,a,peeded,88,donkey,955,correct,NA,May  6 2023 17:53:00,Doris,1
5f021,5f021_session2_lista_speeded_trial089_pear.wav,2,a,peeded,89,pear,812,correct,NA,May  6 2023 17:53:24,Doris,1
5f021,5f021_session2_lista_speeded_trial090_olive.wav,2,a,peeded,90,olive,-1,no_resp,NA,May  6 2023 17:53:31,Doris,1
5f021,5f021_session2_lista_speeded_trial091_tray.wav,2,a,peeded,91,tray,-1,disfluency,pronounced the word from the previous trial ("olive") and then said "tray",May  6 2023 17:53:58,Doris,1
5f021,5f021_session2_lista_speeded_trial092_net.wav,2,a,peeded,92,net,-1,no_resp,NA,May  6 2023 17:54:05,Doris,1
5f021,5f021_session2_lista_speeded_trial093_potato.wav,2,a,peeded,93,potato,-1,disfluency,did not utter/record the final vowel /o/,May  6 2023 17:54:39,Doris,1
5f021,5f021_session2_lista_speeded_trial094_owl.wav,2,a,peeded,94,owl,900,correct,NA,May  6 2023 17:55:06,Doris,1
5f021,5f021_session2_lista_speeded_trial095_koala.wav,2,a,peeded,95,koala,836,correct,NA,May  6 2023 17:55:29,Doris,1
5f021,5f021_session2_lista_speeded_trial096_tap.wav,2,a,peeded,96,tap,828,correct,NA,May  6 2023 17:55:49,Doris,1
5f021,5f021_session2_lista_speeded_trial097_soap.wav,2,a,peeded,97,soap,853,correct,NA,May  6 2023 17:56:08,Doris,1
5f021,5f021_session2_lista_speeded_trial098_knife.wav,2,a,peeded,98,knife,940,correct,NA,May  6 2023 17:56:20,Doris,1
5f021,5f021_session2_lista_speeded_trial099_windmill.wav,2,a,peeded,99,windmill,787,correct,NA,May  6 2023 17:57:01,Doris,1
5f021,5f021_session2_lista_speeded_trial100_castle.wav,2,a,peeded,100,castle,861,correct,NA,May  6 2023 17:57:28,Doris,1
5f021,5f021_session2_lista_speeded_trial101_fox.wav,2,a,peeded,101,fox,782,correct,NA,May  6 2023 17:57:58,Doris,1
5f021,5f021_session2_lista_speeded_trial102_thumb.wav,2,a,peeded,102,thumb,831,correct,NA,May  6 2023 17:58:58,Doris,1
5f021,5f021_session2_lista_speeded_trial103_suitcase.wav,2,a,peeded,103,suitcase,777,correct,NA,May  6 2023 17:59:38,Doris,1
5f021,5f021_session2_lista_speeded_trial104_squirrel.wav,2,a,peeded,104,squirrel,753,correct,NA,May  6 2023 18:00:13,Doris,1
5f021,5f021_session2_lista_speeded_trial105_fairy.wav,2,a,peeded,105,fairy,781,correct,NA,May  6 2023 18:01:48,Doris,1
5f021,5f021_session2_lista_speeded_trial106_battery.wav,2,a,peeded,106,battery,741,correct,NA,May  6 2023 18:02:08,Doris,1
5f021,5f021_session2_lista_speeded_trial107_star.wav,2,a,peeded,107,star,645,correct,NA,May  6 2023 18:02:42,Doris,1
5f021,5f021_session2_lista_speeded_trial108_caterpillar.wav,2,a,peeded,108,caterpillar,742,correct,NA,May  6 2023 18:03:06,Doris,1
5f021,5f021_session2_lista_speeded_trial109_bullet.wav,2,a,peeded,109,bullet,796,correct,NA,May  6 2023 18:03:27,Doris,1
5f021,5f021_session2_lista_speeded_trial110_rose.wav,2,a,peeded,110,rose,625,correct,NA,May  6 2023 18:03:41,Doris,1
5f021,5f021_session2_lista_speeded_trial111_heel.wav,2,a,peeded,111,heel,828,correct,NA,May  6 2023 18:04:06,Doris,1
5f021,5f021_session2_lista_speeded_trial112_doctor.wav,2,a,peeded,112,doctor,989,correct,NA,May  6 2023 18:04:58,Doris,1
5f021,5f021_session2_lista_speeded_trial113_magnet.wav,2,a,peeded,113,magnet,810,correct,NA,May  6 2023 18:05:20,Doris,1
5f021,5f021_session2_lista_speeded_trial114_arm.wav,2,a,peeded,114,arm,1100,correct,NA,May  6 2023 18:06:04,Doris,1
5f021,5f021_session2_lista_speeded_trial115_zebra.wav,2,a,peeded,115,zebra,750,correct,NA,May  6 2023 18:06:49,Doris,1
5f021,5f021_session2_lista_speeded_trial116_tunnel.wav,2,a,peeded,116,tunnel,887,correct,NA,May  6 2023 18:07:19,Doris,1
5f021,5f021_session2_lista_speeded_trial117_compass.wav,2,a,peeded,117,compass,896,correct,NA,May  6 2023 18:07:44,Doris,1
5f021,5f021_session2_lista_speeded_trial118_lighthouse.wav,2,a,peeded,118,lighthouse,746,correct,NA,May  6 2023 18:08:14,Doris,1
5f021,5f021_session2_lista_speeded_trial119_wing.wav,2,a,peeded,119,wing,961,correct,NA,May  6 2023 18:08:47,Doris,1
5f021,5f021_session2_lista_speeded_trial120_queen.wav,2,a,peeded,120,queen,805,correct,NA,May  6 2023 18:09:20,Doris,1
5f021,5f021_session2_lista_speeded_trial121_fridge.wav,2,a,peeded,121,fridge,766,correct,NA,May  6 2023 18:09:43,Doris,1
5f021,5f021_session2_lista_speeded_trial122_scissors.wav,2,a,peeded,122,scissors,637,correct,NA,May  6 2023 18:10:10,Doris,1
5f021,5f021_session2_lista_speeded_trial123_arrow.wav,2,a,peeded,123,arrow,1107,correct,NA,May  6 2023 18:10:45,Doris,1
5f021,5f021_session2_lista_speeded_trial124_pineapple.wav,2,a,peeded,124,pineapple,889,correct,NA,May  6 2023 18:11:05,Doris,1
5f021,5f021_session2_lista_speeded_trial125_map.wav,2,a,peeded,125,map,980,correct,NA,May  6 2023 18:11:21,Doris,1
5f021,5f021_session2_lista_speeded_trial126_dice.wav,2,a,peeded,126,dice,780,correct,NA,May  6 2023 18:11:46,Doris,1
5f021,5f021_session2_lista_speeded_trial127_ruler.wav,2,a,peeded,127,ruler,762,correct,NA,May  6 2023 18:13:11,Doris,1
5f021,5f021_session2_lista_speeded_trial128_butter.wav,2,a,peeded,128,butter,861,correct,NA,May  6 2023 18:13:30,Doris,1
5f021,5f021_session2_lista_speeded_trial129_bracelet.wav,2,a,peeded,129,bracelet,-1,wrong_word,NA,May  6 2023 18:13:38,Doris,1
5f021,5f021_session2_lista_speeded_trial130_beak.wav,2,a,peeded,130,beak,840,correct,NA,May  6 2023 18:14:06,Doris,1
5f021,5f021_session2_lista_speeded_trial131_whale.wav,2,a,peeded,131,whale,779,correct,NA,May  6 2023 18:14:29,Doris,1
5f021,5f021_session2_lista_speeded_trial132_kitchen.wav,2,a,peeded,132,kitchen,1030,correct,NA,May  6 2023 18:14:55,Doris,1
5f021,5f021_session2_lista_speeded_trial133_sweet.wav,2,a,peeded,133,sweet,733,correct,NA,May  6 2023 18:15:35,Doris,1
5f021,5f021_session2_lista_speeded_trial134_submarine.wav,2,a,peeded,134,submarine,-1,disfluency,only the initial syllable recorded,May  6 2023 18:15:54,Doris,1
5f021,5f021_session2_lista_speeded_trial135_puppet.wav,2,a,peeded,135,puppet,879,correct,NA,May  6 2023 18:16:25,Doris,1
5f021,5f021_session2_lista_speeded_trial136_snake.wav,2,a,peeded,136,snake,653,correct,NA,May  6 2023 18:17:31,Doris,1
5f021,5f021_session2_lista_speeded_trial137_bell.wav,2,a,peeded,137,bell,1427,correct,NA,May  6 2023 18:18:08,Doris,1
5f021,5f021_session2_lista_speeded_trial138_curtain.wav,2,a,peeded,138,curtain,951,correct,NA,May  6 2023 18:18:34,Doris,1
5f021,5f021_session2_lista_speeded_trial139_mermaid.wav,2,a,peeded,139,mermaid,978,correct,NA,May  6 2023 18:19:08,Doris,1
5f021,5f021_session2_lista_speeded_trial140_bench.wav,2,a,peeded,140,bench,761,correct,NA,May  6 2023 18:19:39,Doris,1
5f021,5f021_session2_lista_speeded_trial141_tiger.wav,2,a,peeded,141,tiger,692,correct,NA,May  6 2023 18:20:12,Doris,1
5f021,5f021_session2_lista_speeded_trial142_orange.wav,2,a,peeded,142,orange,855,correct,NA,May  6 2023 18:20:38,Doris,1
5f021,5f021_session2_lista_speeded_trial143_bear.wav,2,a,peeded,143,bear,742,correct,NA,May  6 2023 18:21:04,Doris,1
5f021,5f021_session2_lista_speeded_trial144_judge.wav,2,a,peeded,144,judge,856,correct,NA,May  6 2023 18:21:32,Doris,1
5f021,5f021_session2_lista_speeded_trial145_apple.wav,2,a,peeded,145,apple,890,correct,NA,May  6 2023 18:21:53,Doris,1
5f021,5f021_session2_lista_speeded_trial146_triangle.wav,2,a,peeded,146,triangle,705,correct,NA,May  6 2023 18:22:16,Doris,1
5f021,5f021_session2_lista_speeded_trial147_clown.wav,2,a,peeded,147,clown,914,correct,NA,May  6 2023 18:22:50,Doris,1
5f021,5f021_session2_lista_speeded_trial148_sun.wav,2,a,peeded,148,sun,705,correct,NA,May  6 2023 18:32:14,Doris,1
5f021,5f021_session2_lista_speeded_trial149_suit.wav,2,a,peeded,149,suit,770,correct,NA,May  6 2023 18:32:44,Doris,1
5f021,5f021_session2_lista_speeded_trial150_hippo.wav,2,a,peeded,150,hippo,-1,uncertain,microphone noise makes it difficult to determine whether it is /h/ or hardware making the sound,May  6 2023 18:33:47,Doris,1
