Participant_ID,File_Name,Session,List,Type_Trial,Trial_Nbr,Target,RT,Response_Trial,Comment,Date_Correction,Assessor_Name,Processed
62fb7,62fb7_session2_lista_speeded_trial001_snake.wav,2,a,peeded,1,snake,730,correct,NA,Apr 27 2023 10:41:26,Agnieszka,1
62fb7,62fb7_session2_lista_speeded_trial002_tap.wav,2,a,peeded,2,tap,802,correct,NA,Apr 27 2023 10:41:35,Agnieszka,1
62fb7,62fb7_session2_lista_speeded_trial003_mountain.wav,2,a,peeded,3,mountain,829,correct,NA,Apr 27 2023 10:41:40,Agnieszka,1
62fb7,62fb7_session2_lista_speeded_trial004_orange.wav,2,a,peeded,4,orange,760,correct,NA,Apr 27 2023 10:41:47,Agnieszka,1
62fb7,62fb7_session2_lista_speeded_trial005_suit.wav,2,a,peeded,5,suit,712,correct,NA,Apr 27 2023 10:41:52,Agnieszka,1
62fb7,62fb7_session2_lista_speeded_trial006_drawer.wav,2,a,peeded,6,drawer,762,correct,NA,Apr 27 2023 10:42:01,Agnieszka,1
62fb7,62fb7_session2_lista_speeded_trial007_bull.wav,2,a,peeded,7,bull,892,correct,NA,Apr 27 2023 10:42:08,Agnieszka,1
62fb7,62fb7_session2_lista_speeded_trial008_book.wav,2,a,peeded,8,book,888,correct,NA,Apr 27 2023 10:42:14,Agnieszka,1
62fb7,62fb7_session2_lista_speeded_trial009_zebra.wav,2,a,peeded,9,zebra,834,correct,NA,Apr 27 2023 10:42:19,Agnieszka,1
62fb7,62fb7_session2_lista_speeded_trial010_sword.wav,2,a,peeded,10,sword,780,correct,NA,Apr 27 2023 10:42:24,Agnieszka,1
62fb7,62fb7_session2_lista_speeded_trial011_arrow.wav,2,a,peeded,11,arrow,928,correct,NA,Apr 27 2023 10:42:29,Agnieszka,1
62fb7,62fb7_session2_lista_speeded_trial012_cork.wav,2,a,peeded,12,cork,925,correct,NA,Apr 27 2023 10:42:35,Agnieszka,1
62fb7,62fb7_session2_lista_speeded_trial013_compass.wav,2,a,peeded,13,compass,968,correct,NA,Apr 27 2023 10:42:40,Agnieszka,1
62fb7,62fb7_session2_lista_speeded_trial014_skirt.wav,2,a,peeded,14,skirt,845,correct,NA,Apr 27 2023 10:42:45,Agnieszka,1
62fb7,62fb7_session2_lista_speeded_trial015_swan.wav,2,a,peeded,15,swan,755,correct,NA,Apr 27 2023 10:42:50,Agnieszka,1
62fb7,62fb7_session2_lista_speeded_trial016_lighter.wav,2,a,peeded,16,lighter,914,correct,NA,Apr 27 2023 10:42:57,Agnieszka,1
62fb7,62fb7_session2_lista_speeded_trial017_key.wav,2,a,peeded,17,key,833,correct,NA,Apr 27 2023 10:43:02,Agnieszka,1
62fb7,62fb7_session2_lista_speeded_trial018_hippo.wav,2,a,peeded,18,hippo,870,correct,NA,Apr 27 2023 10:43:11,Agnieszka,1
62fb7,62fb7_session2_lista_speeded_trial019_flipper.wav,2,a,peeded,19,flipper,1128,correct,NA,Apr 27 2023 10:43:19,Agnieszka,1
62fb7,62fb7_session2_lista_speeded_trial020_soap.wav,2,a,peeded,20,soap,982,correct,NA,Apr 27 2023 10:43:25,Agnieszka,1
62fb7,62fb7_session2_lista_speeded_trial021_whale.wav,2,a,peeded,21,whale,1459,correct,ending cut off,Apr 27 2023 10:43:36,Agnieszka,1
62fb7,62fb7_session2_lista_speeded_trial022_tie.wav,2,a,peeded,22,tie,1006,correct,NA,Apr 27 2023 10:43:41,Agnieszka,1
62fb7,62fb7_session2_lista_speeded_trial023_doctor.wav,2,a,peeded,23,doctor,897,correct,NA,Apr 27 2023 10:43:47,Agnieszka,1
62fb7,62fb7_session2_lista_speeded_trial024_windmill.wav,2,a,peeded,24,windmill,825,correct,NA,Apr 27 2023 10:43:53,Agnieszka,1
62fb7,62fb7_session2_lista_speeded_trial025_lamp.wav,2,a,peeded,25,lamp,750,correct,NA,Apr 27 2023 10:43:58,Agnieszka,1
62fb7,62fb7_session2_lista_speeded_trial026_pear.wav,2,a,peeded,26,pear,869,correct,NA,Apr 27 2023 10:44:04,Agnieszka,1
62fb7,62fb7_session2_lista_speeded_trial027_net.wav,2,a,peeded,27,net,777,correct,NA,Apr 27 2023 10:44:10,Agnieszka,1
62fb7,62fb7_session2_lista_speeded_trial028_fence.wav,2,a,peeded,28,fence,791,correct,NA,Apr 27 2023 10:44:18,Agnieszka,1
62fb7,62fb7_session2_lista_speeded_trial029_fireplace.wav,2,a,peeded,29,fireplace,914,correct,NA,Apr 27 2023 10:44:26,Agnieszka,1
62fb7,62fb7_session2_lista_speeded_trial030_candle.wav,2,a,peeded,30,candle,885,correct,NA,Apr 27 2023 10:44:32,Agnieszka,1
62fb7,62fb7_session2_lista_speeded_trial031_potato.wav,2,a,peeded,31,potato,805,correct,NA,Apr 27 2023 10:44:43,Agnieszka,1
62fb7,62fb7_session2_lista_speeded_trial032_train.wav,2,a,peeded,32,train,764,correct,NA,Apr 27 2023 10:44:51,Agnieszka,1
62fb7,62fb7_session2_lista_speeded_trial033_gym.wav,2,a,peeded,33,gym,845,correct,NA,Apr 27 2023 10:44:57,Agnieszka,1
62fb7,62fb7_session2_lista_speeded_trial034_triangle.wav,2,a,peeded,34,triangle,748,correct,NA,Apr 27 2023 10:45:04,Agnieszka,1
62fb7,62fb7_session2_lista_speeded_trial035_fridge.wav,2,a,peeded,35,fridge,732,correct,NA,Apr 27 2023 10:45:16,Agnieszka,1
62fb7,62fb7_session2_lista_speeded_trial036_tray.wav,2,a,peeded,36,tray,833,correct,NA,Apr 27 2023 10:45:23,Agnieszka,1
62fb7,62fb7_session2_lista_speeded_trial037_drum.wav,2,a,peeded,37,drum,723,correct,NA,Apr 27 2023 10:45:31,Agnieszka,1
62fb7,62fb7_session2_lista_speeded_trial038_doughnut.wav,2,a,peeded,38,doughnut,807,correct,NA,Apr 27 2023 10:45:37,Agnieszka,1
62fb7,62fb7_session2_lista_speeded_trial039_bracelet.wav,2,a,peeded,39,bracelet,901,correct,NA,Apr 27 2023 10:45:43,Agnieszka,1
62fb7,62fb7_session2_lista_speeded_trial040_pepper.wav,2,a,peeded,40,pepper,919,correct,NA,Apr 27 2023 10:45:51,Agnieszka,1
62fb7,62fb7_session2_lista_speeded_trial041_shield.wav,2,a,peeded,41,shield,822,uncertain,sounds like "s-shield" a little bit,Apr 27 2023 10:46:27,Agnieszka,1
62fb7,62fb7_session2_lista_speeded_trial042_shower.wav,2,a,peeded,42,shower,810,correct,NA,Apr 27 2023 10:46:31,Agnieszka,1
62fb7,62fb7_session2_lista_speeded_trial043_boxer.wav,2,a,peeded,43,boxer,829,correct,NA,Apr 27 2023 10:46:39,Agnieszka,1
62fb7,62fb7_session2_lista_speeded_trial044_fox.wav,2,a,peeded,44,fox,764,correct,NA,Apr 27 2023 10:46:44,Agnieszka,1
62fb7,62fb7_session2_lista_speeded_trial045_onion.wav,2,a,peeded,45,onion,-1,no_resp,NA,Apr 27 2023 10:46:48,Agnieszka,1
62fb7,62fb7_session2_lista_speeded_trial046_ear.wav,2,a,peeded,46,ear,760,correct,NA,Apr 27 2023 10:46:54,Agnieszka,1
62fb7,62fb7_session2_lista_speeded_trial047_map.wav,2,a,peeded,47,map,760,correct,NA,Apr 27 2023 10:47:00,Agnieszka,1
62fb7,62fb7_session2_lista_speeded_trial048_sun.wav,2,a,peeded,48,sun,695,correct,NA,Apr 27 2023 10:47:05,Agnieszka,1
62fb7,62fb7_session2_lista_speeded_trial049_medal.wav,2,a,peeded,49,medal,943,correct,NA,Apr 27 2023 10:47:11,Agnieszka,1
62fb7,62fb7_session2_lista_speeded_trial050_bottle.wav,2,a,peeded,50,bottle,860,correct,NA,Apr 27 2023 10:47:18,Agnieszka,1
62fb7,62fb7_session2_lista_speeded_trial051_pipe.wav,2,a,peeded,51,pipe,1060,correct,NA,Apr 27 2023 10:47:24,Agnieszka,1
62fb7,62fb7_session2_lista_speeded_trial052_bib.wav,2,a,peeded,52,bib,966,correct,NA,Apr 27 2023 10:47:29,Agnieszka,1
62fb7,62fb7_session2_lista_speeded_trial053_star.wav,2,a,peeded,53,star,670,correct,NA,Apr 27 2023 10:47:37,Agnieszka,1
62fb7,62fb7_session2_lista_speeded_trial054_computer.wav,2,a,peeded,54,computer,768,correct,NA,Apr 27 2023 10:47:45,Agnieszka,1
62fb7,62fb7_session2_lista_speeded_trial055_island.wav,2,a,peeded,55,island,971,correct,NA,Apr 27 2023 10:47:54,Agnieszka,1
62fb7,62fb7_session2_lista_speeded_trial056_plumber.wav,2,a,peeded,56,plumber,1121,correct,NA,Apr 27 2023 10:48:00,Agnieszka,1
62fb7,62fb7_session2_lista_speeded_trial057_caterpillar.wav,2,a,peeded,57,caterpillar,934,correct,NA,Apr 27 2023 10:48:05,Agnieszka,1
62fb7,62fb7_session2_lista_speeded_trial058_heel.wav,2,a,peeded,58,heel,863,correct,NA,Apr 27 2023 10:48:10,Agnieszka,1
62fb7,62fb7_session2_lista_speeded_trial059_bike.wav,2,a,peeded,59,bike,838,correct,NA,Apr 27 2023 10:48:16,Agnieszka,1
62fb7,62fb7_session2_lista_speeded_trial060_bullet.wav,2,a,peeded,60,bullet,926,correct,NA,Apr 27 2023 10:48:21,Agnieszka,1
62fb7,62fb7_session2_lista_speeded_trial061_castle.wav,2,a,peeded,61,castle,778,correct,NA,Apr 27 2023 10:48:27,Agnieszka,1
62fb7,62fb7_session2_lista_speeded_trial062_teacher.wav,2,a,peeded,62,teacher,1040,correct,NA,Apr 27 2023 10:48:33,Agnieszka,1
62fb7,62fb7_session2_lista_speeded_trial063_squirrel.wav,2,a,peeded,63,squirrel,982,correct,NA,Apr 27 2023 10:48:38,Agnieszka,1
62fb7,62fb7_session2_lista_speeded_trial064_butterfly.wav,2,a,peeded,64,butterfly,941,correct,NA,Apr 27 2023 10:48:45,Agnieszka,1
62fb7,62fb7_session2_lista_speeded_trial065_sausage.wav,2,a,peeded,65,sausage,959,correct,NA,Apr 27 2023 10:48:50,Agnieszka,1
62fb7,62fb7_session2_lista_speeded_trial066_fork.wav,2,a,peeded,66,fork,757,correct,NA,Apr 27 2023 10:48:58,Agnieszka,1
62fb7,62fb7_session2_lista_speeded_trial067_cherry.wav,2,a,peeded,67,cherry,961,correct,NA,Apr 27 2023 10:49:04,Agnieszka,1
62fb7,62fb7_session2_lista_speeded_trial068_tree.wav,2,a,peeded,68,tree,796,correct,NA,Apr 27 2023 10:49:10,Agnieszka,1
62fb7,62fb7_session2_lista_speeded_trial069_tattoo.wav,2,a,peeded,69,tattoo,1166,correct,NA,Apr 27 2023 10:49:16,Agnieszka,1
62fb7,62fb7_session2_lista_speeded_trial070_goat.wav,2,a,peeded,70,goat,930,correct,NA,Apr 27 2023 10:49:24,Agnieszka,1
62fb7,62fb7_session2_lista_speeded_trial071_bone.wav,2,a,peeded,71,bone,820,correct,NA,Apr 27 2023 10:49:30,Agnieszka,1
62fb7,62fb7_session2_lista_speeded_trial072_battery.wav,2,a,peeded,72,battery,1013,correct,NA,Apr 27 2023 10:49:36,Agnieszka,1
62fb7,62fb7_session2_lista_speeded_trial073_avocado.wav,2,a,peeded,73,avocado,1457,correct,cut off after "avo",Apr 27 2023 10:49:56,Agnieszka,1
62fb7,62fb7_session2_lista_speeded_trial074_pencil.wav,2,a,peeded,74,pencil,780,correct,NA,Apr 27 2023 10:50:02,Agnieszka,1
62fb7,62fb7_session2_lista_speeded_trial075_lawnmower.wav,2,a,peeded,75,lawnmower,810,correct,NA,Apr 27 2023 10:50:07,Agnieszka,1
62fb7,62fb7_session2_lista_speeded_trial076_limo.wav,2,a,peeded,76,limo,838,correct,NA,Apr 27 2023 10:50:12,Agnieszka,1
62fb7,62fb7_session2_lista_speeded_trial077_koala.wav,2,a,peeded,77,koala,888,correct,NA,Apr 27 2023 10:50:18,Agnieszka,1
62fb7,62fb7_session2_lista_speeded_trial078_mouth.wav,2,a,peeded,78,mouth,789,correct,NA,Apr 27 2023 10:50:23,Agnieszka,1
62fb7,62fb7_session2_lista_speeded_trial079_kitchen.wav,2,a,peeded,79,kitchen,869,correct,NA,Apr 27 2023 10:50:28,Agnieszka,1
62fb7,62fb7_session2_lista_speeded_trial080_thumb.wav,2,a,peeded,80,thumb,810,correct,NA,Apr 27 2023 10:50:33,Agnieszka,1
62fb7,62fb7_session2_lista_speeded_trial081_tunnel.wav,2,a,peeded,81,tunnel,833,correct,NA,Apr 27 2023 10:50:39,Agnieszka,1
62fb7,62fb7_session2_lista_speeded_trial082_pocket.wav,2,a,peeded,82,pocket,1228,correct,NA,Apr 27 2023 10:50:45,Agnieszka,1
62fb7,62fb7_session2_lista_speeded_trial083_shoe.wav,2,a,peeded,83,shoe,964,correct,NA,Apr 27 2023 10:50:50,Agnieszka,1
62fb7,62fb7_session2_lista_speeded_trial084_glove.wav,2,a,peeded,84,glove,798,correct,NA,Apr 27 2023 10:50:55,Agnieszka,1
62fb7,62fb7_session2_lista_speeded_trial085_tractor.wav,2,a,peeded,85,tractor,780,correct,NA,Apr 27 2023 10:51:01,Agnieszka,1
62fb7,62fb7_session2_lista_speeded_trial086_magnet.wav,2,a,peeded,86,magnet,843,correct,NA,Apr 27 2023 10:51:07,Agnieszka,1
62fb7,62fb7_session2_lista_speeded_trial087_helicopter.wav,2,a,peeded,87,helicopter,750,correct,NA,Apr 27 2023 10:51:15,Agnieszka,1
62fb7,62fb7_session2_lista_speeded_trial088_dice.wav,2,a,peeded,88,dice,721,correct,NA,Apr 27 2023 10:51:20,Agnieszka,1
62fb7,62fb7_session2_lista_speeded_trial089_bench.wav,2,a,peeded,89,bench,867,correct,NA,Apr 27 2023 10:51:26,Agnieszka,1
62fb7,62fb7_session2_lista_speeded_trial090_suitcase.wav,2,a,peeded,90,suitcase,733,correct,NA,Apr 27 2023 10:51:35,Agnieszka,1
62fb7,62fb7_session2_lista_speeded_trial091_queen.wav,2,a,peeded,91,queen,789,correct,NA,Apr 27 2023 10:51:43,Agnieszka,1
62fb7,62fb7_session2_lista_speeded_trial092_saw.wav,2,a,peeded,92,saw,735,correct,NA,Apr 27 2023 10:51:48,Agnieszka,1
62fb7,62fb7_session2_lista_speeded_trial093_puppet.wav,2,a,peeded,93,puppet,863,correct,NA,Apr 27 2023 10:51:55,Agnieszka,1
62fb7,62fb7_session2_lista_speeded_trial094_arm.wav,2,a,peeded,94,arm,970,correct,NA,Apr 27 2023 10:52:02,Agnieszka,1
62fb7,62fb7_session2_lista_speeded_trial095_circle.wav,2,a,peeded,95,circle,-1,no_resp,NA,Apr 27 2023 10:52:06,Agnieszka,1
62fb7,62fb7_session2_lista_speeded_trial096_rhino.wav,2,a,peeded,96,rhino,1146,correct,NA,Apr 27 2023 10:52:11,Agnieszka,1
62fb7,62fb7_session2_lista_speeded_trial097_kangaroo.wav,2,a,peeded,97,kangaroo,784,correct,NA,Apr 27 2023 10:52:17,Agnieszka,1
62fb7,62fb7_session2_lista_speeded_trial098_apple.wav,2,a,peeded,98,apple,926,correct,NA,Apr 27 2023 10:52:22,Agnieszka,1
62fb7,62fb7_session2_lista_speeded_trial099_flag.wav,2,a,peeded,99,flag,708,correct,NA,Apr 27 2023 10:52:29,Agnieszka,1
62fb7,62fb7_session2_lista_speeded_trial100_curtain.wav,2,a,peeded,100,curtain,760,correct,NA,Apr 27 2023 10:52:36,Agnieszka,1
62fb7,62fb7_session2_lista_speeded_trial101_bus.wav,2,a,peeded,101,bus,816,correct,NA,Apr 27 2023 10:52:45,Agnieszka,1
62fb7,62fb7_session2_lista_speeded_trial102_wheelbarrow.wav,2,a,peeded,102,wheelbarrow,778,correct,NA,Apr 27 2023 10:52:52,Agnieszka,1
62fb7,62fb7_session2_lista_speeded_trial103_butter.wav,2,a,peeded,103,butter,878,correct,NA,Apr 27 2023 10:52:58,Agnieszka,1
62fb7,62fb7_session2_lista_speeded_trial104_wall.wav,2,a,peeded,104,wall,730,correct,NA,Apr 27 2023 10:53:11,Agnieszka,1
62fb7,62fb7_session2_lista_speeded_trial105_jellyfish.wav,2,a,peeded,105,jellyfish,796,correct,NA,Apr 27 2023 10:53:40,Agnieszka,1
62fb7,62fb7_session2_lista_speeded_trial106_carrot.wav,2,a,peeded,106,carrot,759,correct,NA,Apr 27 2023 10:53:54,Agnieszka,1
62fb7,62fb7_session2_lista_speeded_trial107_tiger.wav,2,a,peeded,107,tiger,706,correct,NA,Apr 27 2023 10:54:02,Agnieszka,1
62fb7,62fb7_session2_lista_speeded_trial108_owl.wav,2,a,peeded,108,owl,874,correct,NA,Apr 27 2023 10:54:08,Agnieszka,1
62fb7,62fb7_session2_lista_speeded_trial109_donkey.wav,2,a,peeded,109,donkey,892,correct,NA,Apr 27 2023 10:54:13,Agnieszka,1
62fb7,62fb7_session2_lista_speeded_trial110_judge.wav,2,a,peeded,110,judge,805,correct,NA,Apr 27 2023 10:54:22,Agnieszka,1
62fb7,62fb7_session2_lista_speeded_trial111_knife.wav,2,a,peeded,111,knife,854,correct,NA,Apr 27 2023 10:54:27,Agnieszka,1
62fb7,62fb7_session2_lista_speeded_trial112_submarine.wav,2,a,peeded,112,submarine,988,correct,NA,Apr 27 2023 10:54:35,Agnieszka,1
62fb7,62fb7_session2_lista_speeded_trial113_clown.wav,2,a,peeded,113,clown,796,correct,NA,Apr 27 2023 10:54:40,Agnieszka,1
62fb7,62fb7_session2_lista_speeded_trial114_fairy.wav,2,a,peeded,114,fairy,769,correct,NA,Apr 27 2023 10:54:45,Agnieszka,1
62fb7,62fb7_session2_lista_speeded_trial115_peg.wav,2,a,peeded,115,peg,861,correct,NA,Apr 27 2023 10:54:52,Agnieszka,1
62fb7,62fb7_session2_lista_speeded_trial116_beak.wav,2,a,peeded,116,beak,822,correct,NA,Apr 27 2023 10:54:59,Agnieszka,1
62fb7,62fb7_session2_lista_speeded_trial117_olive.wav,2,a,peeded,117,olive,825,correct,NA,Apr 27 2023 10:55:05,Agnieszka,1
62fb7,62fb7_session2_lista_speeded_trial118_lighthouse.wav,2,a,peeded,118,lighthouse,863,correct,NA,Apr 27 2023 10:55:10,Agnieszka,1
62fb7,62fb7_session2_lista_speeded_trial119_rocket.wav,2,a,peeded,119,rocket,766,correct,NA,Apr 27 2023 10:55:16,Agnieszka,1
62fb7,62fb7_session2_lista_speeded_trial120_tongue.wav,2,a,peeded,120,tongue,1008,correct,NA,Apr 27 2023 10:55:23,Agnieszka,1
62fb7,62fb7_session2_lista_speeded_trial121_comb.wav,2,a,peeded,121,comb,932,correct,NA,Apr 27 2023 10:55:31,Agnieszka,1
62fb7,62fb7_session2_lista_speeded_trial122_rose.wav,2,a,peeded,122,rose,879,correct,NA,Apr 27 2023 10:55:37,Agnieszka,1
62fb7,62fb7_session2_lista_speeded_trial123_tambourine.wav,2,a,peeded,123,tambourine,948,correct,NA,Apr 27 2023 10:55:44,Agnieszka,1
62fb7,62fb7_session2_lista_speeded_trial124_lung.wav,2,a,peeded,124,lung,993,correct,NA,Apr 27 2023 10:55:49,Agnieszka,1
62fb7,62fb7_session2_lista_speeded_trial125_crab.wav,2,a,peeded,125,crab,750,correct,NA,Apr 27 2023 10:55:56,Agnieszka,1
62fb7,62fb7_session2_lista_speeded_trial126_ghost.wav,2,a,peeded,126,ghost,771,correct,NA,Apr 27 2023 10:56:01,Agnieszka,1
62fb7,62fb7_session2_lista_speeded_trial127_bell.wav,2,a,peeded,127,bell,787,correct,NA,Apr 27 2023 10:56:10,Agnieszka,1
62fb7,62fb7_session2_lista_speeded_trial128_camel.wav,2,a,peeded,128,camel,869,correct,NA,Apr 27 2023 10:56:16,Agnieszka,1
62fb7,62fb7_session2_lista_speeded_trial129_wing.wav,2,a,peeded,129,wing,1157,correct,NA,Apr 27 2023 10:56:21,Agnieszka,1
62fb7,62fb7_session2_lista_speeded_trial130_ruler.wav,2,a,peeded,130,ruler,1237,correct,NA,Apr 27 2023 10:56:30,Agnieszka,1
62fb7,62fb7_session2_lista_speeded_trial131_wave.wav,2,a,peeded,131,wave,941,correct,NA,Apr 27 2023 10:56:35,Agnieszka,1
62fb7,62fb7_session2_lista_speeded_trial132_sweet.wav,2,a,peeded,132,sweet,744,correct,NA,Apr 27 2023 10:56:41,Agnieszka,1
62fb7,62fb7_session2_lista_speeded_trial133_kite.wav,2,a,peeded,133,kite,1110,correct,NA,Apr 27 2023 10:56:49,Agnieszka,1
62fb7,62fb7_session2_lista_speeded_trial134_scissors.wav,2,a,peeded,134,scissors,701,correct,NA,Apr 27 2023 10:56:54,Agnieszka,1
62fb7,62fb7_session2_lista_speeded_trial135_coat.wav,2,a,peeded,135,coat,804,correct,NA,Apr 27 2023 10:57:01,Agnieszka,1
62fb7,62fb7_session2_lista_speeded_trial136_nest.wav,2,a,peeded,136,nest,912,correct,NA,Apr 27 2023 10:57:06,Agnieszka,1
62fb7,62fb7_session2_lista_speeded_trial137_dummy.wav,2,a,peeded,137,dummy,912,correct,NA,Apr 27 2023 10:57:11,Agnieszka,1
62fb7,62fb7_session2_lista_speeded_trial138_robot.wav,2,a,peeded,138,robot,854,correct,NA,Apr 27 2023 10:57:15,Agnieszka,1
62fb7,62fb7_session2_lista_speeded_trial139_hat.wav,2,a,peeded,139,hat,883,correct,NA,Apr 27 2023 10:57:21,Agnieszka,1
62fb7,62fb7_session2_lista_speeded_trial140_dress.wav,2,a,peeded,140,dress,1370,correct,ending cut off,Apr 27 2023 10:57:32,Agnieszka,1
62fb7,62fb7_session2_lista_speeded_trial141_mermaid.wav,2,a,peeded,141,mermaid,1006,correct,NA,Apr 27 2023 10:57:36,Agnieszka,1
62fb7,62fb7_session2_lista_speeded_trial142_zip.wav,2,a,peeded,142,zip,771,correct,NA,Apr 27 2023 10:57:42,Agnieszka,1
62fb7,62fb7_session2_lista_speeded_trial143_rabbit.wav,2,a,peeded,143,rabbit,760,correct,NA,Apr 27 2023 10:57:47,Agnieszka,1
62fb7,62fb7_session2_lista_speeded_trial144_flower.wav,2,a,peeded,144,flower,867,correct,NA,Apr 27 2023 10:57:52,Agnieszka,1
62fb7,62fb7_session2_lista_speeded_trial145_elbow.wav,2,a,peeded,145,elbow,883,correct,NA,Apr 27 2023 10:57:57,Agnieszka,1
62fb7,62fb7_session2_lista_speeded_trial146_bear.wav,2,a,peeded,146,bear,750,correct,NA,Apr 27 2023 10:58:05,Agnieszka,1
62fb7,62fb7_session2_lista_speeded_trial147_basket.wav,2,a,peeded,147,basket,773,correct,NA,Apr 27 2023 10:58:10,Agnieszka,1
62fb7,62fb7_session2_lista_speeded_trial148_pineapple.wav,2,a,peeded,148,pineapple,715,correct,NA,Apr 27 2023 10:58:17,Agnieszka,1
62fb7,62fb7_session2_lista_speeded_trial149_tomato.wav,2,a,peeded,149,tomato,721,correct,NA,Apr 27 2023 10:58:23,Agnieszka,1
62fb7,62fb7_session2_lista_speeded_trial150_kiwi.wav,2,a,peeded,150,kiwi,784,correct,NA,Apr 27 2023 10:58:29,Agnieszka,1
