Participant_ID,File_Name,Session,List,Type_Trial,Trial_Nbr,Target,RT,Response_Trial,Comment,Date_Correction,Assessor_Name,Processed
5e432,5e432_session2_lista_speeded_trial001_castle.wav,2,a,peeded,1,castle,653,correct,NA,May 04 2023 14:49:40,Friederike,1
5e432,5e432_session2_lista_speeded_trial002_doctor.wav,2,a,peeded,2,doctor,781,correct,NA,May 04 2023 14:49:57,Friederike,1
5e432,5e432_session2_lista_speeded_trial003_robot.wav,2,a,peeded,3,robot,875,correct,NA,May 04 2023 14:50:32,Friederike,1
5e432,5e432_session2_lista_speeded_trial004_tractor.wav,2,a,peeded,4,tractor,641,correct,NA,May 04 2023 14:50:48,Friederike,1
5e432,5e432_session2_lista_speeded_trial005_cherry.wav,2,a,peeded,5,cherry,633,correct,NA,May 04 2023 14:51:02,Friederike,1
5e432,5e432_session2_lista_speeded_trial006_pepper.wav,2,a,peeded,6,pepper,769,correct,NA,May 04 2023 14:51:20,Friederike,1
5e432,5e432_session2_lista_speeded_trial007_ruler.wav,2,a,peeded,7,ruler,663,correct,NA,May 04 2023 14:52:06,Friederike,1
5e432,5e432_session2_lista_speeded_trial008_bell.wav,2,a,peeded,8,bell,711,correct,NA,May 04 2023 14:52:23,Friederike,1
5e432,5e432_session2_lista_speeded_trial009_magnet.wav,2,a,peeded,9,magnet,810,correct,NA,May 04 2023 14:52:45,Friederike,1
5e432,5e432_session2_lista_speeded_trial010_shower.wav,2,a,peeded,10,shower,-1,wrong_word,NA,May 04 2023 14:53:09,Friederike,1
5e432,5e432_session2_lista_speeded_trial011_bus.wav,2,a,peeded,11,bus,718,correct,NA,May 04 2023 14:53:24,Friederike,1
5e432,5e432_session2_lista_speeded_trial012_tap.wav,2,a,peeded,12,tap,719,correct,NA,May 04 2023 14:53:42,Friederike,1
5e432,5e432_session2_lista_speeded_trial013_tunnel.wav,2,a,peeded,13,tunnel,731,correct,NA,May 04 2023 14:54:03,Friederike,1
5e432,5e432_session2_lista_speeded_trial014_dress.wav,2,a,peeded,14,dress,-1,disfluency,NA,May 04 2023 14:54:14,Friederike,1
5e432,5e432_session2_lista_speeded_trial015_sweet.wav,2,a,peeded,15,sweet,610,correct,NA,May 04 2023 14:54:33,Friederike,1
5e432,5e432_session2_lista_speeded_trial016_camel.wav,2,a,peeded,16,camel,701,correct,NA,May 04 2023 14:54:51,Friederike,1
5e432,5e432_session2_lista_speeded_trial017_crab.wav,2,a,peeded,17,crab,656,correct,NA,May 04 2023 14:55:13,Friederike,1
5e432,5e432_session2_lista_speeded_trial018_scissors.wav,2,a,peeded,18,scissors,647,correct,NA,May 04 2023 14:55:30,Friederike,1
5e432,5e432_session2_lista_speeded_trial019_rocket.wav,2,a,peeded,19,rocket,717,correct,NA,May 04 2023 14:55:52,Friederike,1
5e432,5e432_session2_lista_speeded_trial020_lighthouse.wav,2,a,peeded,20,lighthouse,884,correct,NA,May 04 2023 14:56:26,Friederike,1
5e432,5e432_session2_lista_speeded_trial021_fox.wav,2,a,peeded,21,fox,770,correct,NA,May 04 2023 14:56:42,Friederike,1
5e432,5e432_session2_lista_speeded_trial022_dummy.wav,2,a,peeded,22,dummy,666,correct,NA,May 04 2023 14:56:57,Friederike,1
5e432,5e432_session2_lista_speeded_trial023_tiger.wav,2,a,peeded,23,tiger,869,correct,NA,May 04 2023 14:57:20,Friederike,1
5e432,5e432_session2_lista_speeded_trial024_compass.wav,2,a,peeded,24,compass,851,correct,NA,May 04 2023 14:57:42,Friederike,1
5e432,5e432_session2_lista_speeded_trial025_lawnmower.wav,2,a,peeded,25,lawnmower,802,correct,NA,May 04 2023 14:57:58,Friederike,1
5e432,5e432_session2_lista_speeded_trial026_candle.wav,2,a,peeded,26,candle,722,correct,NA,May 04 2023 16:04:15,Friederike,1
5e432,5e432_session2_lista_speeded_trial027_doughnut.wav,2,a,peeded,27,doughnut,657,correct,NA,May 04 2023 16:04:30,Friederike,1
5e432,5e432_session2_lista_speeded_trial028_pineapple.wav,2,a,peeded,28,pineapple,658,correct,NA,May 04 2023 16:04:47,Friederike,1
5e432,5e432_session2_lista_speeded_trial029_medal.wav,2,a,peeded,29,medal,-1,disfluency,NA,May 04 2023 16:04:55,Friederike,1
5e432,5e432_session2_lista_speeded_trial030_book.wav,2,a,peeded,30,book,727,correct,NA,May 04 2023 16:05:18,Friederike,1
5e432,5e432_session2_lista_speeded_trial031_knife.wav,2,a,peeded,31,knife,740,correct,NA,May 04 2023 16:05:35,Friederike,1
5e432,5e432_session2_lista_speeded_trial032_tray.wav,2,a,peeded,32,tray,730,correct,NA,May 04 2023 16:05:46,Friederike,1
5e432,5e432_session2_lista_speeded_trial033_tree.wav,2,a,peeded,33,tree,734,correct,NA,May 04 2023 16:06:30,Friederike,1
5e432,5e432_session2_lista_speeded_trial034_beak.wav,2,a,peeded,34,beak,768,correct,NA,May 04 2023 16:06:51,Friederike,1
5e432,5e432_session2_lista_speeded_trial035_owl.wav,2,a,peeded,35,owl,1073,correct,NA,May 04 2023 16:07:10,Friederike,1
5e432,5e432_session2_lista_speeded_trial036_avocado.wav,2,a,peeded,36,avocado,701,correct,NA,May 04 2023 16:07:24,Friederike,1
5e432,5e432_session2_lista_speeded_trial037_potato.wav,2,a,peeded,37,potato,939,correct,NA,May 04 2023 16:07:37,Friederike,1
5e432,5e432_session2_lista_speeded_trial038_elbow.wav,2,a,peeded,38,elbow,781,correct,NA,May 04 2023 16:09:35,Friederike,1
5e432,5e432_session2_lista_speeded_trial039_wheelbarrow.wav,2,a,peeded,39,wheelbarrow,789,correct,NA,May 04 2023 16:09:48,Friederike,1
5e432,5e432_session2_lista_speeded_trial040_heel.wav,2,a,peeded,40,heel,-1,disfluency,NA,May 04 2023 16:09:56,Friederike,1
5e432,5e432_session2_lista_speeded_trial041_train.wav,2,a,peeded,41,train,686,correct,NA,May 04 2023 16:10:45,Friederike,1
5e432,5e432_session2_lista_speeded_trial042_computer.wav,2,a,peeded,42,computer,749,correct,NA,May 04 2023 16:11:00,Friederike,1
5e432,5e432_session2_lista_speeded_trial043_mermaid.wav,2,a,peeded,43,mermaid,748,correct,NA,May 04 2023 16:11:22,Friederike,1
5e432,5e432_session2_lista_speeded_trial044_wing.wav,2,a,peeded,44,wing,804,correct,NA,May 04 2023 16:11:37,Friederike,1
5e432,5e432_session2_lista_speeded_trial045_wall.wav,2,a,peeded,45,wall,796,correct,NA,May 04 2023 16:11:51,Friederike,1
5e432,5e432_session2_lista_speeded_trial046_snake.wav,2,a,peeded,46,snake,600,correct,NA,May 04 2023 16:12:13,Friederike,1
5e432,5e432_session2_lista_speeded_trial047_orange.wav,2,a,peeded,47,orange,706,correct,NA,May 04 2023 16:12:38,Friederike,1
5e432,5e432_session2_lista_speeded_trial048_limo.wav,2,a,peeded,48,limo,691,correct,NA,May 04 2023 16:12:55,Friederike,1
5e432,5e432_session2_lista_speeded_trial049_bib.wav,2,a,peeded,49,bib,881,correct,NA,May 04 2023 16:13:13,Friederike,1
5e432,5e432_session2_lista_speeded_trial050_wave.wav,2,a,peeded,50,wave,953,correct,NA,May 04 2023 16:13:34,Friederike,1
5e432,5e432_session2_lista_speeded_trial051_rhino.wav,2,a,peeded,51,rhino,792,correct,NA,May 04 2023 16:13:55,Friederike,1
5e432,5e432_session2_lista_speeded_trial052_butterfly.wav,2,a,peeded,52,butterfly,743,correct,NA,May 04 2023 16:14:05,Friederike,1
5e432,5e432_session2_lista_speeded_trial053_queen.wav,2,a,peeded,53,queen,784,correct,NA,May 04 2023 16:14:16,Friederike,1
5e432,5e432_session2_lista_speeded_trial054_island.wav,2,a,peeded,54,island,781,correct,NA,May 04 2023 16:14:28,Friederike,1
5e432,5e432_session2_lista_speeded_trial055_apple.wav,2,a,peeded,55,apple,-1,disfluency,NA,May 04 2023 16:14:39,Friederike,1
5e432,5e432_session2_lista_speeded_trial056_lung.wav,2,a,peeded,56,lung,799,correct,NA,May 04 2023 16:14:56,Friederike,1
5e432,5e432_session2_lista_speeded_trial057_judge.wav,2,a,peeded,57,judge,986,correct,NA,May 04 2023 16:15:13,Friederike,1
5e432,5e432_session2_lista_speeded_trial058_saw.wav,2,a,peeded,58,saw,790,correct,NA,May 04 2023 16:15:34,Friederike,1
5e432,5e432_session2_lista_speeded_trial059_comb.wav,2,a,peeded,59,comb,921,correct,NA,May 04 2023 16:16:00,Friederike,1
5e432,5e432_session2_lista_speeded_trial060_jellyfish.wav,2,a,peeded,60,jellyfish,1048,correct,NA,May 04 2023 16:16:16,Friederike,1
5e432,5e432_session2_lista_speeded_trial061_ear.wav,2,a,peeded,61,ear,735,correct,NA,May 04 2023 16:16:31,Friederike,1
5e432,5e432_session2_lista_speeded_trial062_butter.wav,2,a,peeded,62,butter,1159,correct,NA,May 04 2023 16:16:46,Friederike,1
5e432,5e432_session2_lista_speeded_trial063_lamp.wav,2,a,peeded,63,lamp,679,correct,NA,May 04 2023 16:17:01,Friederike,1
5e432,5e432_session2_lista_speeded_trial064_teacher.wav,2,a,peeded,64,teacher,931,correct,NA,May 04 2023 16:17:23,Friederike,1
5e432,5e432_session2_lista_speeded_trial065_zebra.wav,2,a,peeded,65,zebra,670,correct,NA,May 04 2023 16:17:40,Friederike,1
5e432,5e432_session2_lista_speeded_trial066_key.wav,2,a,peeded,66,key,1002,correct,NA,May 04 2023 16:17:55,Friederike,1
5e432,5e432_session2_lista_speeded_trial067_caterpillar.wav,2,a,peeded,67,caterpillar,737,correct,NA,May 04 2023 16:18:15,Friederike,1
5e432,5e432_session2_lista_speeded_trial068_sausage.wav,2,a,peeded,68,sausage,665,correct,NA,May 04 2023 16:18:27,Friederike,1
5e432,5e432_session2_lista_speeded_trial069_ghost.wav,2,a,peeded,69,ghost,716,correct,NA,May 04 2023 16:18:41,Friederike,1
5e432,5e432_session2_lista_speeded_trial070_basket.wav,2,a,peeded,70,basket,781,correct,NA,May 04 2023 16:19:00,Friederike,1
5e432,5e432_session2_lista_speeded_trial071_shoe.wav,2,a,peeded,71,shoe,639,correct,NA,May 04 2023 16:19:17,Friederike,1
5e432,5e432_session2_lista_speeded_trial072_circle.wav,2,a,peeded,72,circle,-1,no_resp,NA,May 04 2023 16:19:24,Friederike,1
5e432,5e432_session2_lista_speeded_trial073_helicopter.wav,2,a,peeded,73,helicopter,960,correct,NA,May 04 2023 16:20:04,Friederike,1
5e432,5e432_session2_lista_speeded_trial074_mouth.wav,2,a,peeded,74,mouth,621,correct,NA,May 04 2023 16:20:16,Friederike,1
5e432,5e432_session2_lista_speeded_trial075_carrot.wav,2,a,peeded,75,carrot,776,correct,NA,May 04 2023 16:20:34,Friederike,1
5e432,5e432_session2_lista_speeded_trial076_star.wav,2,a,peeded,76,star,627,correct,NA,May 04 2023 16:20:51,Friederike,1
5e432,5e432_session2_lista_speeded_trial077_fireplace.wav,2,a,peeded,77,fireplace,812,correct,NA,May 04 2023 16:21:07,Friederike,1
5e432,5e432_session2_lista_speeded_trial078_peg.wav,2,a,peeded,78,peg,759,correct,NA,May 04 2023 16:21:22,Friederike,1
5e432,5e432_session2_lista_speeded_trial079_goat.wav,2,a,peeded,79,goat,706,correct,NA,May 04 2023 16:21:37,Friederike,1
5e432,5e432_session2_lista_speeded_trial080_kangaroo.wav,2,a,peeded,80,kangaroo,654,correct,NA,May 04 2023 16:22:05,Friederike,1
5e432,5e432_session2_lista_speeded_trial081_swan.wav,2,a,peeded,81,swan,700,correct,NA,May 04 2023 16:22:24,Friederike,1
5e432,5e432_session2_lista_speeded_trial082_tie.wav,2,a,peeded,82,tie,892,correct,NA,May 04 2023 16:23:00,Friederike,1
5e432,5e432_session2_lista_speeded_trial083_pipe.wav,2,a,peeded,83,pipe,860,correct,NA,May 04 2023 16:23:13,Friederike,1
5e432,5e432_session2_lista_speeded_trial084_flipper.wav,2,a,peeded,84,flipper,-1,wrong_word,NA,May 04 2023 16:23:25,Friederike,1
5e432,5e432_session2_lista_speeded_trial085_nest.wav,2,a,peeded,85,nest,-1,disfluency,NA,May 04 2023 16:23:33,Friederike,1
5e432,5e432_session2_lista_speeded_trial086_coat.wav,2,a,peeded,86,coat,843,correct,NA,May 04 2023 16:23:53,Friederike,1
5e432,5e432_session2_lista_speeded_trial087_fork.wav,2,a,peeded,87,fork,698,correct,NA,May 04 2023 16:24:11,Friederike,1
5e432,5e432_session2_lista_speeded_trial088_lighter.wav,2,a,peeded,88,lighter,910,correct,NA,May 04 2023 16:24:37,Friederike,1
5e432,5e432_session2_lista_speeded_trial089_gym.wav,2,a,peeded,89,gym,872,correct,NA,May 04 2023 16:24:52,Friederike,1
5e432,5e432_session2_lista_speeded_trial090_bull.wav,2,a,peeded,90,bull,-1,wrong_word,NA,May 04 2023 16:24:57,Friederike,1
5e432,5e432_session2_lista_speeded_trial091_zip.wav,2,a,peeded,91,zip,655,correct,NA,May 04 2023 16:25:10,Friederike,1
5e432,5e432_session2_lista_speeded_trial092_clown.wav,2,a,peeded,92,clown,734,correct,NA,May 04 2023 16:25:23,Friederike,1
5e432,5e432_session2_lista_speeded_trial093_soap.wav,2,a,peeded,93,soap,1070,correct,NA,May 04 2023 16:25:42,Friederike,1
5e432,5e432_session2_lista_speeded_trial094_flag.wav,2,a,peeded,94,flag,728,correct,NA,May 04 2023 16:25:55,Friederike,1
5e432,5e432_session2_lista_speeded_trial095_suit.wav,2,a,peeded,95,suit,703,correct,NA,May 04 2023 16:26:10,Friederike,1
5e432,5e432_session2_lista_speeded_trial096_donkey.wav,2,a,peeded,96,donkey,790,correct,NA,May 04 2023 16:26:26,Friederike,1
5e432,5e432_session2_lista_speeded_trial097_shield.wav,2,a,peeded,97,shield,651,correct,NA,May 04 2023 16:26:40,Friederike,1
5e432,5e432_session2_lista_speeded_trial098_kiwi.wav,2,a,peeded,98,kiwi,806,correct,NA,May 04 2023 16:26:58,Friederike,1
5e432,5e432_session2_lista_speeded_trial099_sword.wav,2,a,peeded,99,sword,620,correct,NA,May 04 2023 16:27:25,Friederike,1
5e432,5e432_session2_lista_speeded_trial100_cork.wav,2,a,peeded,100,cork,906,correct,NA,May 04 2023 16:27:41,Friederike,1
5e432,5e432_session2_lista_speeded_trial101_flower.wav,2,a,peeded,101,flower,716,correct,NA,May 04 2023 16:28:32,Friederike,1
5e432,5e432_session2_lista_speeded_trial102_koala.wav,2,a,peeded,102,koala,687,correct,NA,May 04 2023 16:28:47,Friederike,1
5e432,5e432_session2_lista_speeded_trial103_tattoo.wav,2,a,peeded,103,tattoo,961,correct,NA,May 04 2023 16:29:02,Friederike,1
5e432,5e432_session2_lista_speeded_trial104_pear.wav,2,a,peeded,104,pear,782,correct,NA,May 04 2023 16:29:17,Friederike,1
5e432,5e432_session2_lista_speeded_trial105_drawer.wav,2,a,peeded,105,drawer,861,correct,NA,May 04 2023 16:36:37,Friederike,1
5e432,5e432_session2_lista_speeded_trial106_bear.wav,2,a,peeded,106,bear,790,correct,NA,May 04 2023 16:36:50,Friederike,1
5e432,5e432_session2_lista_speeded_trial107_skirt.wav,2,a,peeded,107,skirt,800,correct,NA,May 04 2023 16:37:07,Friederike,1
5e432,5e432_session2_lista_speeded_trial108_windmill.wav,2,a,peeded,108,windmill,790,correct,NA,May 04 2023 16:37:23,Friederike,1
5e432,5e432_session2_lista_speeded_trial109_bone.wav,2,a,peeded,109,bone,697,correct,NA,May 04 2023 16:37:35,Friederike,1
5e432,5e432_session2_lista_speeded_trial110_rose.wav,2,a,peeded,110,rose,-1,wrong_word,NA,May 04 2023 16:37:40,Friederike,1
5e432,5e432_session2_lista_speeded_trial111_sun.wav,2,a,peeded,111,sun,646,correct,NA,May 04 2023 16:37:53,Friederike,1
5e432,5e432_session2_lista_speeded_trial112_squirrel.wav,2,a,peeded,112,squirrel,635,correct,NA,May 04 2023 16:38:20,Friederike,1
5e432,5e432_session2_lista_speeded_trial113_kitchen.wav,2,a,peeded,113,kitchen,1066,correct,NA,May 04 2023 16:38:36,Friederike,1
5e432,5e432_session2_lista_speeded_trial114_curtain.wav,2,a,peeded,114,curtain,765,correct,NA,May 04 2023 16:38:53,Friederike,1
5e432,5e432_session2_lista_speeded_trial115_bike.wav,2,a,peeded,115,bike,779,correct,NA,May 04 2023 16:39:05,Friederike,1
5e432,5e432_session2_lista_speeded_trial116_mountain.wav,2,a,peeded,116,mountain,831,correct,NA,May 04 2023 16:39:19,Friederike,1
5e432,5e432_session2_lista_speeded_trial117_drum.wav,2,a,peeded,117,drum,765,correct,NA,May 04 2023 16:39:40,Friederike,1
5e432,5e432_session2_lista_speeded_trial118_boxer.wav,2,a,peeded,118,boxer,858,correct,NA,May 04 2023 16:39:51,Friederike,1
5e432,5e432_session2_lista_speeded_trial119_bottle.wav,2,a,peeded,119,bottle,-1,wrong_word,NA,May 04 2023 16:39:57,Friederike,1
5e432,5e432_session2_lista_speeded_trial120_hippo.wav,2,a,peeded,120,hippo,842,correct,NA,May 04 2023 16:40:22,Friederike,1
5e432,5e432_session2_lista_speeded_trial121_puppet.wav,2,a,peeded,121,puppet,860,correct,NA,May 04 2023 16:40:35,Friederike,1
5e432,5e432_session2_lista_speeded_trial122_fence.wav,2,a,peeded,122,fence,737,correct,NA,May 04 2023 16:40:54,Friederike,1
5e432,5e432_session2_lista_speeded_trial123_rabbit.wav,2,a,peeded,123,rabbit,717,correct,NA,May 04 2023 16:41:10,Friederike,1
5e432,5e432_session2_lista_speeded_trial124_hat.wav,2,a,peeded,124,hat,618,correct,NA,May 04 2023 16:41:26,Friederike,1
5e432,5e432_session2_lista_speeded_trial125_pencil.wav,2,a,peeded,125,pencil,683,correct,NA,May 04 2023 16:41:43,Friederike,1
5e432,5e432_session2_lista_speeded_trial126_bullet.wav,2,a,peeded,126,bullet,1069,correct,NA,May 04 2023 16:41:58,Friederike,1
5e432,5e432_session2_lista_speeded_trial127_onion.wav,2,a,peeded,127,onion,1274,correct,NA,May 04 2023 16:42:16,Friederike,1
5e432,5e432_session2_lista_speeded_trial128_fridge.wav,2,a,peeded,128,fridge,781,correct,NA,May 04 2023 16:42:52,Friederike,1
5e432,5e432_session2_lista_speeded_trial129_bench.wav,2,a,peeded,129,bench,1037,correct,NA,May 04 2023 16:43:05,Friederike,1
5e432,5e432_session2_lista_speeded_trial130_net.wav,2,a,peeded,130,net,775,correct,NA,May 04 2023 16:43:17,Friederike,1
5e432,5e432_session2_lista_speeded_trial131_suitcase.wav,2,a,peeded,131,suitcase,-1,disfluency,NA,May 04 2023 16:43:32,Friederike,1
5e432,5e432_session2_lista_speeded_trial132_arm.wav,2,a,peeded,132,arm,746,correct,NA,May 04 2023 16:43:43,Friederike,1
5e432,5e432_session2_lista_speeded_trial133_pocket.wav,2,a,peeded,133,pocket,-1,disfluency,NA,May 04 2023 16:43:49,Friederike,1
5e432,5e432_session2_lista_speeded_trial134_kite.wav,2,a,peeded,134,kite,772,correct,NA,May 04 2023 16:44:01,Friederike,1
5e432,5e432_session2_lista_speeded_trial135_glove.wav,2,a,peeded,135,glove,981,correct,NA,May 04 2023 16:44:14,Friederike,1
5e432,5e432_session2_lista_speeded_trial136_battery.wav,2,a,peeded,136,battery,711,correct,NA,May 04 2023 16:44:28,Friederike,1
5e432,5e432_session2_lista_speeded_trial137_map.wav,2,a,peeded,137,map,849,correct,NA,May 04 2023 16:44:39,Friederike,1
5e432,5e432_session2_lista_speeded_trial138_olive.wav,2,a,peeded,138,olive,1283,correct,NA,May 04 2023 16:44:55,Friederike,1
5e432,5e432_session2_lista_speeded_trial139_whale.wav,2,a,peeded,139,whale,1011,correct,NA,May 04 2023 16:45:10,Friederike,1
5e432,5e432_session2_lista_speeded_trial140_thumb.wav,2,a,peeded,140,thumb,760,correct,NA,May 04 2023 16:45:23,Friederike,1
5e432,5e432_session2_lista_speeded_trial141_tomato.wav,2,a,peeded,141,tomato,704,correct,NA,May 04 2023 16:45:32,Friederike,1
5e432,5e432_session2_lista_speeded_trial142_submarine.wav,2,a,peeded,142,submarine,-1,no_resp,NA,May 04 2023 16:45:38,Friederike,1
5e432,5e432_session2_lista_speeded_trial143_plumber.wav,2,a,peeded,143,plumber,1043,correct,NA,May 04 2023 16:46:05,Friederike,1
5e432,5e432_session2_lista_speeded_trial144_tongue.wav,2,a,peeded,144,tongue,-1,disfluency,NA,May 04 2023 16:46:10,Friederike,1
5e432,5e432_session2_lista_speeded_trial145_tambourine.wav,2,a,peeded,145,tambourine,-1,wrong_word,NA,May 04 2023 16:46:15,Friederike,1
5e432,5e432_session2_lista_speeded_trial146_triangle.wav,2,a,peeded,146,triangle,847,correct,NA,May 04 2023 16:46:31,Friederike,1
5e432,5e432_session2_lista_speeded_trial147_fairy.wav,2,a,peeded,147,fairy,722,correct,NA,May 04 2023 16:46:43,Friederike,1
5e432,5e432_session2_lista_speeded_trial148_dice.wav,2,a,peeded,148,dice,706,correct,NA,May 04 2023 16:46:55,Friederike,1
5e432,5e432_session2_lista_speeded_trial149_arrow.wav,2,a,peeded,149,arrow,786,correct,NA,May 04 2023 16:47:08,Friederike,1
5e432,5e432_session2_lista_speeded_trial150_bracelet.wav,2,a,peeded,150,bracelet,1061,correct,NA,May 04 2023 16:47:25,Friederike,1
