Participant_ID,File_Name,Session,List,Type_Trial,Trial_Nbr,Target,RT,Response_Trial,Comment,Date_Correction,Assessor_Name,Processed
5f246,5f246_session2_lista_speeded_trial001_potato.wav,2,a,peeded,1,potato,991,correct,NA,May  2 2023 11:04:12,Radhika,1
5f246,5f246_session2_lista_speeded_trial002_butter.wav,2,a,peeded,2,butter,821,correct,NA,May  2 2023 11:04:37,Radhika,1
5f246,5f246_session2_lista_speeded_trial003_gym.wav,2,a,peeded,3,gym,883,correct,NA,May  2 2023 11:05:07,Radhika,1
5f246,5f246_session2_lista_speeded_trial004_crab.wav,2,a,peeded,4,crab,705,correct,NA,May  2 2023 11:05:24,Radhika,1
5f246,5f246_session2_lista_speeded_trial005_bear.wav,2,a,peeded,5,bear,767,correct,NA,May  2 2023 11:05:40,Radhika,1
5f246,5f246_session2_lista_speeded_trial006_lighter.wav,2,a,peeded,6,lighter,741,correct,NA,May  2 2023 11:05:56,Radhika,1
5f246,5f246_session2_lista_speeded_trial007_dice.wav,2,a,peeded,7,dice,762,correct,NA,May  2 2023 11:06:20,Radhika,1
5f246,5f246_session2_lista_speeded_trial008_sword.wav,2,a,peeded,8,sword,659,correct,NA,May  2 2023 11:06:43,Radhika,1
5f246,5f246_session2_lista_speeded_trial009_queen.wav,2,a,peeded,9,queen,790,correct,NA,May  2 2023 11:07:00,Radhika,1
5f246,5f246_session2_lista_speeded_trial010_castle.wav,2,a,peeded,10,castle,773,correct,NA,May  2 2023 11:07:22,Radhika,1
5f246,5f246_session2_lista_speeded_trial011_kangaroo.wav,2,a,peeded,11,kangaroo,714,correct,NA,May  2 2023 11:07:39,Radhika,1
5f246,5f246_session2_lista_speeded_trial012_battery.wav,2,a,peeded,12,battery,725,correct,NA,May  2 2023 11:07:50,Radhika,1
5f246,5f246_session2_lista_speeded_trial013_drum.wav,2,a,peeded,13,drum,764,correct,NA,May  2 2023 11:08:10,Radhika,1
5f246,5f246_session2_lista_speeded_trial014_hat.wav,2,a,peeded,14,hat,652,correct,NA,May  2 2023 11:08:38,Radhika,1
5f246,5f246_session2_lista_speeded_trial015_tunnel.wav,2,a,peeded,15,tunnel,980,correct,NA,May  2 2023 11:08:52,Radhika,1
5f246,5f246_session2_lista_speeded_trial016_knife.wav,2,a,peeded,16,knife,708,correct,NA,May  2 2023 11:09:13,Radhika,1
5f246,5f246_session2_lista_speeded_trial017_tiger.wav,2,a,peeded,17,tiger,755,correct,NA,May  2 2023 11:09:34,Radhika,1
5f246,5f246_session2_lista_speeded_trial018_nest.wav,2,a,peeded,18,nest,908,correct,NA,May  2 2023 11:09:46,Radhika,1
5f246,5f246_session2_lista_speeded_trial019_avocado.wav,2,a,peeded,19,avocado,828,correct,NA,May  2 2023 11:10:02,Radhika,1
5f246,5f246_session2_lista_speeded_trial020_bull.wav,2,a,peeded,20,bull,1027,correct,NA,May  2 2023 11:11:47,Radhika,1
5f246,5f246_session2_lista_speeded_trial021_sweet.wav,2,a,peeded,21,sweet,741,correct,NA,May  2 2023 11:12:17,Radhika,1
5f246,5f246_session2_lista_speeded_trial022_ghost.wav,2,a,peeded,22,ghost,733,correct,NA,May  2 2023 11:12:34,Radhika,1
5f246,5f246_session2_lista_speeded_trial023_zip.wav,2,a,peeded,23,zip,817,correct,NA,May  2 2023 11:12:47,Radhika,1
5f246,5f246_session2_lista_speeded_trial024_bottle.wav,2,a,peeded,24,bottle,795,correct,NA,May  2 2023 11:13:00,Radhika,1
5f246,5f246_session2_lista_speeded_trial025_computer.wav,2,a,peeded,25,computer,686,correct,NA,May  2 2023 11:13:21,Radhika,1
5f246,5f246_session2_lista_speeded_trial026_apple.wav,2,a,peeded,26,apple,838,correct,NA,May  2 2023 11:13:34,Radhika,1
5f246,5f246_session2_lista_speeded_trial027_shield.wav,2,a,peeded,27,shield,728,correct,NA,May  2 2023 11:13:56,Radhika,1
5f246,5f246_session2_lista_speeded_trial028_lawnmower.wav,2,a,peeded,28,lawnmower,769,correct,NA,May  2 2023 11:14:31,Radhika,1
5f246,5f246_session2_lista_speeded_trial029_tractor.wav,2,a,peeded,29,tractor,805,correct,NA,May  2 2023 11:14:43,Radhika,1
5f246,5f246_session2_lista_speeded_trial030_suitcase.wav,2,a,peeded,30,suitcase,760,correct,NA,May  2 2023 11:15:07,Radhika,1
5f246,5f246_session2_lista_speeded_trial031_bone.wav,2,a,peeded,31,bone,858,correct,NA,May  2 2023 11:15:22,Radhika,1
5f246,5f246_session2_lista_speeded_trial032_circle.wav,2,a,peeded,32,circle,-1,no_resp,NA,May  2 2023 11:15:26,Radhika,1
5f246,5f246_session2_lista_speeded_trial033_sausage.wav,2,a,peeded,33,sausage,778,correct,NA,May  2 2023 11:16:04,Radhika,1
5f246,5f246_session2_lista_speeded_trial034_mountain.wav,2,a,peeded,34,mountain,817,correct,NA,May  2 2023 11:16:15,Radhika,1
5f246,5f246_session2_lista_speeded_trial035_glove.wav,2,a,peeded,35,glove,879,correct,NA,May  2 2023 11:16:29,Radhika,1
5f246,5f246_session2_lista_speeded_trial036_tie.wav,2,a,peeded,36,tie,714,correct,NA,May  2 2023 11:16:48,Radhika,1
5f246,5f246_session2_lista_speeded_trial037_comb.wav,2,a,peeded,37,comb,777,correct,NA,May  2 2023 11:16:59,Radhika,1
5f246,5f246_session2_lista_speeded_trial038_shoe.wav,2,a,peeded,38,shoe,683,correct,NA,May  2 2023 11:17:11,Radhika,1
5f246,5f246_session2_lista_speeded_trial039_peg.wav,2,a,peeded,39,peg,1041,correct,NA,May  2 2023 11:17:26,Radhika,1
5f246,5f246_session2_lista_speeded_trial040_camel.wav,2,a,peeded,40,camel,815,correct,NA,May  2 2023 11:17:46,Radhika,1
5f246,5f246_session2_lista_speeded_trial041_tattoo.wav,2,a,peeded,41,tattoo,-1,disfluency,NA,May  2 2023 11:17:58,Radhika,1
5f246,5f246_session2_lista_speeded_trial042_triangle.wav,2,a,peeded,42,triangle,840,correct,NA,May  2 2023 11:18:33,Radhika,1
5f246,5f246_session2_lista_speeded_trial043_drawer.wav,2,a,peeded,43,drawer,974,correct,NA,May  2 2023 11:18:58,Radhika,1
5f246,5f246_session2_lista_speeded_trial044_wall.wav,2,a,peeded,44,wall,652,correct,NA,May  2 2023 11:19:14,Radhika,1
5f246,5f246_session2_lista_speeded_trial045_bullet.wav,2,a,peeded,45,bullet,1297,correct,NA,May  2 2023 11:19:26,Radhika,1
5f246,5f246_session2_lista_speeded_trial046_rose.wav,2,a,peeded,46,rose,711,correct,NA,May  2 2023 11:19:39,Radhika,1
5f246,5f246_session2_lista_speeded_trial047_ear.wav,2,a,peeded,47,ear,690,correct,NA,May  2 2023 11:19:51,Radhika,1
5f246,5f246_session2_lista_speeded_trial048_goat.wav,2,a,peeded,48,goat,-1,wrong_word,NA,May  2 2023 11:20:14,Radhika,1
5f246,5f246_session2_lista_speeded_trial049_basket.wav,2,a,peeded,49,basket,757,correct,NA,May  2 2023 11:20:25,Radhika,1
5f246,5f246_session2_lista_speeded_trial050_fridge.wav,2,a,peeded,50,fridge,666,correct,NA,May  2 2023 11:20:44,Radhika,1
5f246,5f246_session2_lista_speeded_trial051_pineapple.wav,2,a,peeded,51,pineapple,728,correct,NA,May  2 2023 11:31:59,Radhika,1
5f246,5f246_session2_lista_speeded_trial052_doughnut.wav,2,a,peeded,52,doughnut,683,correct,NA,May  2 2023 11:32:15,Radhika,1
5f246,5f246_session2_lista_speeded_trial053_pear.wav,2,a,peeded,53,pear,648,correct,NA,May  2 2023 11:32:31,Radhika,1
5f246,5f246_session2_lista_speeded_trial054_submarine.wav,2,a,peeded,54,submarine,1063,correct,NA,May  2 2023 11:32:57,Radhika,1
5f246,5f246_session2_lista_speeded_trial055_flag.wav,2,a,peeded,55,flag,844,correct,NA,May  2 2023 11:33:23,Radhika,1
5f246,5f246_session2_lista_speeded_trial056_snake.wav,2,a,peeded,56,snake,665,correct,NA,May  2 2023 11:33:49,Radhika,1
5f246,5f246_session2_lista_speeded_trial057_train.wav,2,a,peeded,57,train,753,correct,NA,May  2 2023 11:34:04,Radhika,1
5f246,5f246_session2_lista_speeded_trial058_helicopter.wav,2,a,peeded,58,helicopter,649,correct,NA,May  2 2023 11:34:42,Radhika,1
5f246,5f246_session2_lista_speeded_trial059_mouth.wav,2,a,peeded,59,mouth,743,correct,NA,May  2 2023 11:34:52,Radhika,1
5f246,5f246_session2_lista_speeded_trial060_dummy.wav,2,a,peeded,60,dummy,804,correct,NA,May  2 2023 11:35:05,Radhika,1
5f246,5f246_session2_lista_speeded_trial061_magnet.wav,2,a,peeded,61,magnet,782,correct,NA,May  2 2023 11:35:17,Radhika,1
5f246,5f246_session2_lista_speeded_trial062_rabbit.wav,2,a,peeded,62,rabbit,707,correct,NA,May  2 2023 11:35:28,Radhika,1
5f246,5f246_session2_lista_speeded_trial063_arrow.wav,2,a,peeded,63,arrow,748,correct,NA,May  2 2023 11:35:42,Radhika,1
5f246,5f246_session2_lista_speeded_trial064_heel.wav,2,a,peeded,64,heel,1033,correct,NA,May  2 2023 11:36:25,Radhika,1
5f246,5f246_session2_lista_speeded_trial065_pencil.wav,2,a,peeded,65,pencil,962,correct,NA,May  2 2023 11:36:41,Radhika,1
5f246,5f246_session2_lista_speeded_trial066_saw.wav,2,a,peeded,66,saw,720,correct,NA,May  2 2023 11:37:04,Radhika,1
5f246,5f246_session2_lista_speeded_trial067_curtain.wav,2,a,peeded,67,curtain,786,correct,NA,May  2 2023 11:37:16,Radhika,1
5f246,5f246_session2_lista_speeded_trial068_thumb.wav,2,a,peeded,68,thumb,758,correct,NA,May  2 2023 11:38:18,Radhika,1
5f246,5f246_session2_lista_speeded_trial069_medal.wav,2,a,peeded,69,medal,782,correct,NA,May  2 2023 11:38:27,Radhika,1
5f246,5f246_session2_lista_speeded_trial070_net.wav,2,a,peeded,70,net,878,correct,NA,May  2 2023 11:38:39,Radhika,1
5f246,5f246_session2_lista_speeded_trial071_pipe.wav,2,a,peeded,71,pipe,790,correct,NA,May  2 2023 11:38:56,Radhika,1
5f246,5f246_session2_lista_speeded_trial072_squirrel.wav,2,a,peeded,72,squirrel,728,correct,NA,May  2 2023 11:39:30,Radhika,1
5f246,5f246_session2_lista_speeded_trial073_compass.wav,2,a,peeded,73,compass,1359,correct,NA,May  2 2023 11:39:58,Radhika,1
5f246,5f246_session2_lista_speeded_trial074_dress.wav,2,a,peeded,74,dress,781,correct,NA,May  2 2023 11:40:12,Radhika,1
5f246,5f246_session2_lista_speeded_trial075_bus.wav,2,a,peeded,75,bus,800,correct,NA,May  2 2023 11:40:27,Radhika,1
5f246,5f246_session2_lista_speeded_trial076_tray.wav,2,a,peeded,76,tray,749,correct,NA,May  2 2023 11:40:40,Radhika,1
5f246,5f246_session2_lista_speeded_trial077_bracelet.wav,2,a,peeded,77,bracelet,806,correct,NA,May  2 2023 11:40:55,Radhika,1
5f246,5f246_session2_lista_speeded_trial078_doctor.wav,2,a,peeded,78,doctor,816,correct,NA,May  2 2023 11:41:10,Radhika,1
5f246,5f246_session2_lista_speeded_trial079_pepper.wav,2,a,peeded,79,pepper,751,correct,NA,May  2 2023 11:41:26,Radhika,1
5f246,5f246_session2_lista_speeded_trial080_jellyfish.wav,2,a,peeded,80,jellyfish,866,correct,NA,May  2 2023 11:41:48,Radhika,1
5f246,5f246_session2_lista_speeded_trial081_wheelbarrow.wav,2,a,peeded,81,wheelbarrow,826,correct,NA,May  2 2023 11:41:57,Radhika,1
5f246,5f246_session2_lista_speeded_trial082_flower.wav,2,a,peeded,82,flower,650,correct,NA,May  2 2023 11:42:25,Radhika,1
5f246,5f246_session2_lista_speeded_trial083_lamp.wav,2,a,peeded,83,lamp,760,correct,NA,May  2 2023 11:42:37,Radhika,1
5f246,5f246_session2_lista_speeded_trial084_caterpillar.wav,2,a,peeded,84,caterpillar,761,correct,NA,May  2 2023 11:42:56,Radhika,1
5f246,5f246_session2_lista_speeded_trial085_onion.wav,2,a,peeded,85,onion,990,correct,NA,May  2 2023 11:43:16,Radhika,1
5f246,5f246_session2_lista_speeded_trial086_fairy.wav,2,a,peeded,86,fairy,-1,wrong_word,NA,May  2 2023 11:43:24,Radhika,1
5f246,5f246_session2_lista_speeded_trial087_bell.wav,2,a,peeded,87,bell,806,correct,NA,May  2 2023 11:43:35,Radhika,1
5f246,5f246_session2_lista_speeded_trial088_flipper.wav,2,a,peeded,88,flipper,920,correct,NA,May  2 2023 11:44:11,Radhika,1
5f246,5f246_session2_lista_speeded_trial089_koala.wav,2,a,peeded,89,koala,870,correct,NA,May  2 2023 11:44:30,Radhika,1
5f246,5f246_session2_lista_speeded_trial090_fence.wav,2,a,peeded,90,fence,663,correct,NA,May  2 2023 11:44:54,Radhika,1
5f246,5f246_session2_lista_speeded_trial091_carrot.wav,2,a,peeded,91,carrot,727,correct,NA,May  2 2023 11:45:13,Radhika,1
5f246,5f246_session2_lista_speeded_trial092_olive.wav,2,a,peeded,92,olive,983,correct,NA,May  2 2023 11:45:30,Radhika,1
5f246,5f246_session2_lista_speeded_trial093_coat.wav,2,a,peeded,93,coat,-1,wrong_word,NA,May  2 2023 11:45:44,Radhika,1
5f246,5f246_session2_lista_speeded_trial094_teacher.wav,2,a,peeded,94,teacher,871,correct,NA,May  2 2023 11:46:03,Radhika,1
5f246,5f246_session2_lista_speeded_trial095_tomato.wav,2,a,peeded,95,tomato,801,correct,NA,May  2 2023 11:46:20,Radhika,1
5f246,5f246_session2_lista_speeded_trial096_shower.wav,2,a,peeded,96,shower,740,correct,NA,May  2 2023 11:47:13,Radhika,1
5f246,5f246_session2_lista_speeded_trial097_map.wav,2,a,peeded,97,map,806,correct,NA,May  2 2023 11:47:14,Radhika,1
5f246,5f246_session2_lista_speeded_trial098_boxer.wav,2,a,peeded,98,boxer,796,correct,NA,May  2 2023 11:47:17,Radhika,1
5f246,5f246_session2_lista_speeded_trial099_cork.wav,2,a,peeded,99,cork,-1,disfluency,NA,May  2 2023 11:47:24,Radhika,1
5f246,5f246_session2_lista_speeded_trial100_book.wav,2,a,peeded,100,book,795,correct,NA,May  2 2023 11:47:56,Radhika,1
5f246,5f246_session2_lista_speeded_trial101_wave.wav,2,a,peeded,101,wave,804,correct,NA,May  2 2023 11:56:24,Radhika,1
5f246,5f246_session2_lista_speeded_trial102_lighthouse.wav,2,a,peeded,102,lighthouse,771,correct,NA,May  2 2023 11:56:52,Radhika,1
5f246,5f246_session2_lista_speeded_trial103_windmill.wav,2,a,peeded,103,windmill,776,correct,NA,May  2 2023 11:57:10,Radhika,1
5f246,5f246_session2_lista_speeded_trial104_owl.wav,2,a,peeded,104,owl,1220,correct,NA,May  2 2023 11:57:22,Radhika,1
5f246,5f246_session2_lista_speeded_trial105_tree.wav,2,a,peeded,105,tree,668,correct,NA,May  2 2023 11:57:38,Radhika,1
5f246,5f246_session2_lista_speeded_trial106_plumber.wav,2,a,peeded,106,plumber,-1,no_resp,NA,May  2 2023 11:57:44,Radhika,1
5f246,5f246_session2_lista_speeded_trial107_puppet.wav,2,a,peeded,107,puppet,1137,correct,NA,May  2 2023 11:58:01,Radhika,1
5f246,5f246_session2_lista_speeded_trial108_lung.wav,2,a,peeded,108,lung,846,correct,NA,May  2 2023 11:58:14,Radhika,1
5f246,5f246_session2_lista_speeded_trial109_candle.wav,2,a,peeded,109,candle,761,correct,NA,May  2 2023 11:58:30,Radhika,1
5f246,5f246_session2_lista_speeded_trial110_kitchen.wav,2,a,peeded,110,kitchen,843,correct,NA,May  2 2023 11:58:51,Radhika,1
5f246,5f246_session2_lista_speeded_trial111_tambourine.wav,2,a,peeded,111,tambourine,-1,disfluency,NA,May  2 2023 11:59:02,Radhika,1
5f246,5f246_session2_lista_speeded_trial112_tongue.wav,2,a,peeded,112,tongue,-1,disfluency,NA,May  2 2023 11:59:11,Radhika,1
5f246,5f246_session2_lista_speeded_trial113_wing.wav,2,a,peeded,113,wing,888,correct,NA,May  2 2023 11:59:24,Radhika,1
5f246,5f246_session2_lista_speeded_trial114_clown.wav,2,a,peeded,114,clown,982,correct,NA,May  2 2023 11:59:47,Radhika,1
5f246,5f246_session2_lista_speeded_trial115_cherry.wav,2,a,peeded,115,cherry,732,correct,NA,May  2 2023 12:00:18,Radhika,1
5f246,5f246_session2_lista_speeded_trial116_swan.wav,2,a,peeded,116,swan,756,correct,NA,May  2 2023 12:00:31,Radhika,1
5f246,5f246_session2_lista_speeded_trial117_sun.wav,2,a,peeded,117,sun,645,correct,NA,May  2 2023 12:00:53,Radhika,1
5f246,5f246_session2_lista_speeded_trial118_orange.wav,2,a,peeded,118,orange,741,correct,NA,May  2 2023 12:01:08,Radhika,1
5f246,5f246_session2_lista_speeded_trial119_fox.wav,2,a,peeded,119,fox,868,correct,NA,May  2 2023 12:01:55,Radhika,1
5f246,5f246_session2_lista_speeded_trial120_skirt.wav,2,a,peeded,120,skirt,758,correct,NA,May  2 2023 12:02:14,Radhika,1
5f246,5f246_session2_lista_speeded_trial121_pocket.wav,2,a,peeded,121,pocket,1043,correct,NA,May  2 2023 12:02:26,Radhika,1
5f246,5f246_session2_lista_speeded_trial122_donkey.wav,2,a,peeded,122,donkey,897,correct,NA,May  2 2023 12:02:43,Radhika,1
5f246,5f246_session2_lista_speeded_trial123_ruler.wav,2,a,peeded,123,ruler,724,correct,NA,May  2 2023 12:02:54,Radhika,1
5f246,5f246_session2_lista_speeded_trial124_suit.wav,2,a,peeded,124,suit,709,correct,NA,May  2 2023 12:03:23,Radhika,1
5f246,5f246_session2_lista_speeded_trial125_arm.wav,2,a,peeded,125,arm,768,correct,NA,May  2 2023 12:03:33,Radhika,1
5f246,5f246_session2_lista_speeded_trial126_rhino.wav,2,a,peeded,126,rhino,959,correct,NA,May  2 2023 12:03:43,Radhika,1
5f246,5f246_session2_lista_speeded_trial127_scissors.wav,2,a,peeded,127,scissors,715,correct,NA,May  2 2023 12:04:06,Radhika,1
5f246,5f246_session2_lista_speeded_trial128_butterfly.wav,2,a,peeded,128,butterfly,772,correct,NA,May  2 2023 12:04:23,Radhika,1
5f246,5f246_session2_lista_speeded_trial129_tap.wav,2,a,peeded,129,tap,891,correct,NA,May  2 2023 12:04:40,Radhika,1
5f246,5f246_session2_lista_speeded_trial130_beak.wav,2,a,peeded,130,beak,939,correct,NA,May  2 2023 12:05:18,Radhika,1
5f246,5f246_session2_lista_speeded_trial131_zebra.wav,2,a,peeded,131,zebra,839,correct,NA,May  2 2023 12:05:43,Radhika,1
5f246,5f246_session2_lista_speeded_trial132_rocket.wav,2,a,peeded,132,rocket,900,correct,NA,May  2 2023 12:05:57,Radhika,1
5f246,5f246_session2_lista_speeded_trial133_island.wav,2,a,peeded,133,island,975,correct,NA,May  2 2023 12:06:11,Radhika,1
5f246,5f246_session2_lista_speeded_trial134_bench.wav,2,a,peeded,134,bench,738,correct,NA,May  2 2023 12:06:30,Radhika,1
5f246,5f246_session2_lista_speeded_trial135_star.wav,2,a,peeded,135,star,611,correct,NA,May  2 2023 12:06:49,Radhika,1
5f246,5f246_session2_lista_speeded_trial136_mermaid.wav,2,a,peeded,136,mermaid,907,correct,NA,May  2 2023 12:07:01,Radhika,1
5f246,5f246_session2_lista_speeded_trial137_fork.wav,2,a,peeded,137,fork,616,correct,NA,May  2 2023 12:07:31,Radhika,1
5f246,5f246_session2_lista_speeded_trial138_bike.wav,2,a,peeded,138,bike,722,correct,NA,May  2 2023 12:07:44,Radhika,1
5f246,5f246_session2_lista_speeded_trial139_robot.wav,2,a,peeded,139,robot,802,correct,NA,May  2 2023 12:07:56,Radhika,1
5f246,5f246_session2_lista_speeded_trial140_limo.wav,2,a,peeded,140,limo,1271,correct,NA,May  2 2023 12:08:09,Radhika,1
5f246,5f246_session2_lista_speeded_trial141_fireplace.wav,2,a,peeded,141,fireplace,-1,wrong_word,NA,May  2 2023 12:08:17,Radhika,1
5f246,5f246_session2_lista_speeded_trial142_bib.wav,2,a,peeded,142,bib,878,correct,NA,May  2 2023 12:08:53,Radhika,1
5f246,5f246_session2_lista_speeded_trial143_kiwi.wav,2,a,peeded,143,kiwi,759,correct,NA,May  2 2023 12:09:07,Radhika,1
5f246,5f246_session2_lista_speeded_trial144_soap.wav,2,a,peeded,144,soap,-1,disfluency,NA,May  2 2023 12:09:13,Radhika,1
5f246,5f246_session2_lista_speeded_trial145_key.wav,2,a,peeded,145,key,753,correct,NA,May  2 2023 12:09:31,Radhika,1
5f246,5f246_session2_lista_speeded_trial146_kite.wav,2,a,peeded,146,kite,-1,disfluency,NA,May  2 2023 12:09:51,Radhika,1
5f246,5f246_session2_lista_speeded_trial147_whale.wav,2,a,peeded,147,whale,938,correct,NA,May  2 2023 12:10:08,Radhika,1
5f246,5f246_session2_lista_speeded_trial148_elbow.wav,2,a,peeded,148,elbow,857,correct,NA,May  2 2023 12:10:19,Radhika,1
5f246,5f246_session2_lista_speeded_trial149_judge.wav,2,a,peeded,149,judge,879,correct,NA,May  2 2023 12:10:33,Radhika,1
5f246,5f246_session2_lista_speeded_trial150_hippo.wav,2,a,peeded,150,hippo,-1,disfluency,NA,May  2 2023 12:10:39,Radhika,1
