Participant_ID,File_Name,Session,List,Type_Trial,Trial_Nbr,Target,RT,Response_Trial,Comment,Date_Correction,Assessor_Name,Processed
60de3,60de3_session2_lista_speeded_trial001_ghost.wav,2,a,peeded,1,ghost,863,correct,NA,Apr 27 2023 14:39:43,Radhika,1
60de3,60de3_session2_lista_speeded_trial002_lighter.wav,2,a,peeded,2,lighter,841,correct,NA,Apr 27 2023 14:40:02,Radhika,1
60de3,60de3_session2_lista_speeded_trial003_sweet.wav,2,a,peeded,3,sweet,761,correct,NA,Apr 27 2023 14:46:05,Radhika,1
60de3,60de3_session2_lista_speeded_trial004_owl.wav,2,a,peeded,4,owl,799,correct,NA,Apr 27 2023 14:46:51,Radhika,1
60de3,60de3_session2_lista_speeded_trial005_pipe.wav,2,a,peeded,5,pipe,761,correct,NA,Apr 27 2023 14:47:15,Radhika,1
60de3,60de3_session2_lista_speeded_trial006_orange.wav,2,a,peeded,6,orange,910,correct,NA,Apr 27 2023 14:47:50,Radhika,1
60de3,60de3_session2_lista_speeded_trial007_arm.wav,2,a,peeded,7,arm,894,correct,NA,Apr 27 2023 14:48:39,Radhika,1
60de3,60de3_session2_lista_speeded_trial008_fox.wav,2,a,peeded,8,fox,935,correct,NA,Apr 27 2023 14:50:07,Radhika,1
60de3,60de3_session2_lista_speeded_trial009_fork.wav,2,a,peeded,9,fork,907,correct,NA,Apr 27 2023 15:04:43,Radhika,1
60de3,60de3_session2_lista_speeded_trial010_compass.wav,2,a,peeded,10,compass,-1,no_resp,NA,Apr 27 2023 15:04:51,Radhika,1
60de3,60de3_session2_lista_speeded_trial011_cherry.wav,2,a,peeded,11,cherry,1247,correct,NA,Apr 27 2023 15:05:44,Radhika,1
60de3,60de3_session2_lista_speeded_trial012_teacher.wav,2,a,peeded,12,teacher,905,correct,NA,Apr 27 2023 15:06:56,Radhika,1
60de3,60de3_session2_lista_speeded_trial013_squirrel.wav,2,a,peeded,13,squirrel,890,correct,NA,Apr 27 2023 15:07:56,Radhika,1
60de3,60de3_session2_lista_speeded_trial014_helicopter.wav,2,a,peeded,14,helicopter,810,correct,NA,Apr 27 2023 15:09:01,Radhika,1
60de3,60de3_session2_lista_speeded_trial015_snake.wav,2,a,peeded,15,snake,777,correct,NA,Apr 27 2023 15:16:19,Radhika,1
60de3,60de3_session2_lista_speeded_trial016_tractor.wav,2,a,peeded,16,tractor,799,correct,NA,Apr 27 2023 15:16:54,Radhika,1
60de3,60de3_session2_lista_speeded_trial017_caterpillar.wav,2,a,peeded,17,caterpillar,894,correct,NA,Apr 27 2023 15:17:32,Radhika,1
60de3,60de3_session2_lista_speeded_trial018_zip.wav,2,a,peeded,18,zip,812,correct,NA,Apr 27 2023 15:18:29,Radhika,1
60de3,60de3_session2_lista_speeded_trial019_gym.wav,2,a,peeded,19,gym,1262,correct,NA,Apr 27 2023 15:24:34,Radhika,1
60de3,60de3_session2_lista_speeded_trial020_scissors.wav,2,a,peeded,20,scissors,992,correct,NA,Apr 27 2023 15:35:46,Radhika,1
60de3,60de3_session2_lista_speeded_trial021_drum.wav,2,a,peeded,21,drum,933,correct,NA,Apr 27 2023 15:36:49,Radhika,1
60de3,60de3_session2_lista_speeded_trial022_lung.wav,2,a,peeded,22,lung,891,correct,NA,Apr 27 2023 15:37:01,Radhika,1
60de3,60de3_session2_lista_speeded_trial023_doctor.wav,2,a,peeded,23,doctor,947,correct,NA,Apr 27 2023 15:37:27,Radhika,1
60de3,60de3_session2_lista_speeded_trial024_bull.wav,2,a,peeded,24,bull,903,correct,NA,Apr 27 2023 15:37:49,Radhika,1
60de3,60de3_session2_lista_speeded_trial025_donkey.wav,2,a,peeded,25,donkey,941,correct,NA,Apr 27 2023 15:38:05,Radhika,1
60de3,60de3_session2_lista_speeded_trial026_pear.wav,2,a,peeded,26,pear,834,correct,NA,Apr 27 2023 15:38:34,Radhika,1
60de3,60de3_session2_lista_speeded_trial027_tunnel.wav,2,a,peeded,27,tunnel,904,correct,NA,Apr 27 2023 15:47:40,Radhika,1
60de3,60de3_session2_lista_speeded_trial028_dummy.wav,2,a,peeded,28,dummy,834,correct,NA,Apr 27 2023 15:48:12,Radhika,1
60de3,60de3_session2_lista_speeded_trial029_beak.wav,2,a,peeded,29,beak,857,correct,NA,Apr 27 2023 15:48:46,Radhika,1
60de3,60de3_session2_lista_speeded_trial030_bib.wav,2,a,peeded,30,bib,911,correct,NA,Apr 27 2023 15:49:05,Radhika,1
60de3,60de3_session2_lista_speeded_trial031_sausage.wav,2,a,peeded,31,sausage,988,correct,NA,Apr 27 2023 15:49:35,Radhika,1
60de3,60de3_session2_lista_speeded_trial032_soap.wav,2,a,peeded,32,soap,1194,correct,NA,Apr 27 2023 15:50:12,Radhika,1
60de3,60de3_session2_lista_speeded_trial033_island.wav,2,a,peeded,33,island,1093,correct,NA,Apr 27 2023 15:50:56,Radhika,1
60de3,60de3_session2_lista_speeded_trial034_flipper.wav,2,a,peeded,34,flipper,-1,no_resp,NA,Apr 27 2023 15:51:02,Radhika,1
60de3,60de3_session2_lista_speeded_trial035_onion.wav,2,a,peeded,35,onion,986,correct,NA,Apr 27 2023 15:51:14,Radhika,1
60de3,60de3_session2_lista_speeded_trial036_comb.wav,2,a,peeded,36,comb,1326,correct,NA,Apr 27 2023 15:51:46,Radhika,1
60de3,60de3_session2_lista_speeded_trial037_dress.wav,2,a,peeded,37,dress,1138,correct,NA,Apr 27 2023 15:52:17,Radhika,1
60de3,60de3_session2_lista_speeded_trial038_kiwi.wav,2,a,peeded,38,kiwi,768,correct,NA,Apr 27 2023 15:52:41,Radhika,1
60de3,60de3_session2_lista_speeded_trial039_flag.wav,2,a,peeded,39,flag,701,correct,NA,Apr 27 2023 15:53:28,Radhika,1
60de3,60de3_session2_lista_speeded_trial040_triangle.wav,2,a,peeded,40,triangle,727,correct,NA,Apr 27 2023 15:53:58,Radhika,1
60de3,60de3_session2_lista_speeded_trial041_circle.wav,2,a,peeded,41,circle,-1,no_resp,NA,Apr 27 2023 15:54:04,Radhika,1
60de3,60de3_session2_lista_speeded_trial042_tie.wav,2,a,peeded,42,tie,855,correct,NA,Apr 27 2023 15:54:30,Radhika,1
60de3,60de3_session2_lista_speeded_trial043_fence.wav,2,a,peeded,43,fence,856,correct,NA,Apr 27 2023 15:56:12,Radhika,1
60de3,60de3_session2_lista_speeded_trial044_shoe.wav,2,a,peeded,44,shoe,726,correct,NA,Apr 27 2023 15:56:58,Radhika,1
60de3,60de3_session2_lista_speeded_trial045_bottle.wav,2,a,peeded,45,bottle,782,correct,NA,Apr 27 2023 15:57:10,Radhika,1
60de3,60de3_session2_lista_speeded_trial046_hippo.wav,2,a,peeded,46,hippo,814,correct,NA,Apr 27 2023 15:57:49,Radhika,1
60de3,60de3_session2_lista_speeded_trial047_butter.wav,2,a,peeded,47,butter,834,correct,NA,Apr 27 2023 15:58:03,Radhika,1
60de3,60de3_session2_lista_speeded_trial048_arrow.wav,2,a,peeded,48,arrow,800,correct,NA,Apr 27 2023 15:58:37,Radhika,1
60de3,60de3_session2_lista_speeded_trial049_rocket.wav,2,a,peeded,49,rocket,828,correct,NA,Apr 27 2023 15:58:52,Radhika,1
60de3,60de3_session2_lista_speeded_trial050_camel.wav,2,a,peeded,50,camel,828,correct,NA,Apr 27 2023 16:07:35,Radhika,1
60de3,60de3_session2_lista_speeded_trial051_tap.wav,2,a,peeded,51,tap,838,correct,NA,Apr 27 2023 16:08:10,Radhika,1
60de3,60de3_session2_lista_speeded_trial052_peg.wav,2,a,peeded,52,peg,823,correct,NA,Apr 27 2023 16:09:01,Radhika,1
60de3,60de3_session2_lista_speeded_trial053_suit.wav,2,a,peeded,53,suit,714,correct,NA,Apr 27 2023 16:10:01,Radhika,1
60de3,60de3_session2_lista_speeded_trial054_bus.wav,2,a,peeded,54,bus,866,correct,NA,Apr 27 2023 16:10:13,Radhika,1
60de3,60de3_session2_lista_speeded_trial055_kite.wav,2,a,peeded,55,kite,805,correct,NA,Apr 27 2023 16:10:51,Radhika,1
60de3,60de3_session2_lista_speeded_trial056_shield.wav,2,a,peeded,56,shield,871,correct,NA,Apr 27 2023 16:11:40,Radhika,1
60de3,60de3_session2_lista_speeded_trial057_rhino.wav,2,a,peeded,57,rhino,722,correct,NA,Apr 27 2023 16:11:41,Radhika,1
60de3,60de3_session2_lista_speeded_trial058_goat.wav,2,a,peeded,58,goat,761,correct,NA,Apr 27 2023 16:11:58,Radhika,1
60de3,60de3_session2_lista_speeded_trial059_curtain.wav,2,a,peeded,59,curtain,788,correct,NA,Apr 27 2023 16:12:29,Radhika,1
60de3,60de3_session2_lista_speeded_trial060_tongue.wav,2,a,peeded,60,tongue,869,correct,NA,Apr 27 2023 16:12:59,Radhika,1
60de3,60de3_session2_lista_speeded_trial061_glove.wav,2,a,peeded,61,glove,860,correct,NA,Apr 27 2023 16:28:49,Radhika,1
60de3,60de3_session2_lista_speeded_trial062_train.wav,2,a,peeded,62,train,859,correct,NA,Apr 27 2023 16:29:44,Radhika,1
60de3,60de3_session2_lista_speeded_trial063_nest.wav,2,a,peeded,63,nest,792,correct,NA,Apr 27 2023 16:30:00,Radhika,1
60de3,60de3_session2_lista_speeded_trial064_judge.wav,2,a,peeded,64,judge,840,correct,NA,Apr 27 2023 16:30:33,Radhika,1
60de3,60de3_session2_lista_speeded_trial065_apple.wav,2,a,peeded,65,apple,699,correct,NA,Apr 27 2023 16:30:44,Radhika,1
60de3,60de3_session2_lista_speeded_trial066_coat.wav,2,a,peeded,66,coat,763,correct,NA,Apr 27 2023 16:31:04,Radhika,1
60de3,60de3_session2_lista_speeded_trial067_boxer.wav,2,a,peeded,67,boxer,743,correct,NA,Apr 27 2023 16:31:15,Radhika,1
60de3,60de3_session2_lista_speeded_trial068_carrot.wav,2,a,peeded,68,carrot,723,correct,NA,Apr 27 2023 16:31:41,Radhika,1
60de3,60de3_session2_lista_speeded_trial069_submarine.wav,2,a,peeded,69,submarine,-1,disfluency,NA,Apr 27 2023 16:34:13,Radhika,1
60de3,60de3_session2_lista_speeded_trial070_kitchen.wav,2,a,peeded,70,kitchen,848,correct,NA,Apr 27 2023 16:34:38,Radhika,1
60de3,60de3_session2_lista_speeded_trial071_rose.wav,2,a,peeded,71,rose,814,correct,NA,Apr 27 2023 16:34:52,Radhika,1
60de3,60de3_session2_lista_speeded_trial072_wave.wav,2,a,peeded,72,wave,835,correct,NA,Apr 27 2023 16:35:36,Radhika,1
60de3,60de3_session2_lista_speeded_trial073_fireplace.wav,2,a,peeded,73,fireplace,791,correct,NA,Apr 27 2023 16:37:01,Radhika,1
60de3,60de3_session2_lista_speeded_trial074_pocket.wav,2,a,peeded,74,pocket,887,correct,NA,Apr 27 2023 16:37:35,Radhika,1
60de3,60de3_session2_lista_speeded_trial075_wing.wav,2,a,peeded,75,wing,719,correct,NA,Apr 27 2023 16:37:56,Radhika,1
60de3,60de3_session2_lista_speeded_trial076_ruler.wav,2,a,peeded,76,ruler,818,correct,NA,Apr 27 2023 16:38:24,Radhika,1
60de3,60de3_session2_lista_speeded_trial077_windmill.wav,2,a,peeded,77,windmill,884,correct,NA,Apr 27 2023 16:38:38,Radhika,1
60de3,60de3_session2_lista_speeded_trial078_fairy.wav,2,a,peeded,78,fairy,755,correct,NA,Apr 27 2023 16:40:01,Radhika,1
60de3,60de3_session2_lista_speeded_trial079_bracelet.wav,2,a,peeded,79,bracelet,879,correct,NA,Apr 27 2023 16:40:13,Radhika,1
60de3,60de3_session2_lista_speeded_trial080_whale.wav,2,a,peeded,80,whale,868,correct,NA,Apr 27 2023 16:40:26,Radhika,1
60de3,60de3_session2_lista_speeded_trial081_thumb.wav,2,a,peeded,81,thumb,728,correct,NA,Apr 27 2023 16:41:19,Radhika,1
60de3,60de3_session2_lista_speeded_trial082_mermaid.wav,2,a,peeded,82,mermaid,-1,correct,NA,Apr 27 2023 16:41:29,Radhika,1
60de3,60de3_session2_lista_speeded_trial083_wall.wav,2,a,peeded,83,wall,962,correct,NA,Apr 27 2023 16:41:41,Radhika,1
60de3,60de3_session2_lista_speeded_trial084_lawnmower.wav,2,a,peeded,84,lawnmower,952,correct,NA,Apr 27 2023 16:41:54,Radhika,1
60de3,60de3_session2_lista_speeded_trial085_drawer.wav,2,a,peeded,85,drawer,927,correct,NA,Apr 27 2023 16:42:15,Radhika,1
60de3,60de3_session2_lista_speeded_trial086_bear.wav,2,a,peeded,86,bear,903,correct,NA,Apr 27 2023 16:42:26,Radhika,1
60de3,60de3_session2_lista_speeded_trial087_castle.wav,2,a,peeded,87,castle,899,correct,NA,Apr 27 2023 16:42:52,Radhika,1
60de3,60de3_session2_lista_speeded_trial088_key.wav,2,a,peeded,88,key,791,correct,NA,Apr 27 2023 16:43:18,Radhika,1
60de3,60de3_session2_lista_speeded_trial089_computer.wav,2,a,peeded,89,computer,773,correct,NA,Apr 27 2023 16:43:44,Radhika,1
60de3,60de3_session2_lista_speeded_trial090_dice.wav,2,a,peeded,90,dice,-1,wrong_word,NA,Apr 27 2023 16:43:59,Radhika,1
60de3,60de3_session2_lista_speeded_trial091_lighthouse.wav,2,a,peeded,91,lighthouse,881,correct,NA,Apr 27 2023 16:44:18,Radhika,1
60de3,60de3_session2_lista_speeded_trial092_kangaroo.wav,2,a,peeded,92,kangaroo,821,correct,NA,Apr 27 2023 16:44:52,Radhika,1
60de3,60de3_session2_lista_speeded_trial093_mountain.wav,2,a,peeded,93,mountain,962,correct,NA,Apr 27 2023 16:45:03,Radhika,1
60de3,60de3_session2_lista_speeded_trial094_butterfly.wav,2,a,peeded,94,butterfly,866,correct,NA,Apr 27 2023 16:45:17,Radhika,1
60de3,60de3_session2_lista_speeded_trial095_plumber.wav,2,a,peeded,95,plumber,914,correct,NA,Apr 27 2023 16:46:05,Radhika,1
60de3,60de3_session2_lista_speeded_trial096_olive.wav,2,a,peeded,96,olive,855,correct,NA,Apr 27 2023 16:46:12,Radhika,1
60de3,60de3_session2_lista_speeded_trial097_tattoo.wav,2,a,peeded,97,tattoo,1066,correct,NA,Apr 27 2023 16:47:12,Radhika,1
60de3,60de3_session2_lista_speeded_trial098_suitcase.wav,2,a,peeded,98,suitcase,973,correct,NA,Apr 27 2023 16:47:28,Radhika,1
60de3,60de3_session2_lista_speeded_trial099_puppet.wav,2,a,peeded,99,puppet,-1,wrong_word,NA,Apr 27 2023 16:47:49,Radhika,1
60de3,60de3_session2_lista_speeded_trial100_tambourine.wav,2,a,peeded,100,tambourine,977,correct,NA,Apr 27 2023 16:48:15,Radhika,1
60de3,60de3_session2_lista_speeded_trial101_zebra.wav,2,a,peeded,101,zebra,739,correct,NA,Apr 27 2023 16:48:51,Radhika,1
60de3,60de3_session2_lista_speeded_trial102_robot.wav,2,a,peeded,102,robot,856,correct,NA,Apr 27 2023 16:49:04,Radhika,1
60de3,60de3_session2_lista_speeded_trial103_tree.wav,2,a,peeded,103,tree,899,correct,NA,Apr 27 2023 16:49:37,Radhika,1
60de3,60de3_session2_lista_speeded_trial104_tray.wav,2,a,peeded,104,tray,822,correct,NA,Apr 27 2023 16:50:07,Radhika,1
60de3,60de3_session2_lista_speeded_trial105_clown.wav,2,a,peeded,105,clown,937,correct,NA,Apr 27 2023 16:50:30,Radhika,1
60de3,60de3_session2_lista_speeded_trial106_flower.wav,2,a,peeded,106,flower,780,correct,NA,Apr 27 2023 16:50:59,Radhika,1
60de3,60de3_session2_lista_speeded_trial107_crab.wav,2,a,peeded,107,crab,858,correct,NA,Apr 27 2023 16:51:35,Radhika,1
60de3,60de3_session2_lista_speeded_trial108_pineapple.wav,2,a,peeded,108,pineapple,859,correct,NA,Apr 27 2023 16:51:54,Radhika,1
60de3,60de3_session2_lista_speeded_trial109_bike.wav,2,a,peeded,109,bike,876,correct,NA,Apr 27 2023 16:52:06,Radhika,1
60de3,60de3_session2_lista_speeded_trial110_bone.wav,2,a,peeded,110,bone,897,correct,NA,Apr 27 2023 16:52:20,Radhika,1
60de3,60de3_session2_lista_speeded_trial111_sword.wav,2,a,peeded,111,sword,787,correct,NA,Apr 27 2023 16:53:00,Radhika,1
60de3,60de3_session2_lista_speeded_trial112_wheelbarrow.wav,2,a,peeded,112,wheelbarrow,867,correct,NA,Apr 27 2023 16:53:09,Radhika,1
60de3,60de3_session2_lista_speeded_trial113_heel.wav,2,a,peeded,113,heel,-1,wrong_word,NA,Apr 27 2023 16:53:17,Radhika,1
60de3,60de3_session2_lista_speeded_trial114_map.wav,2,a,peeded,114,map,1088,correct,NA,Apr 27 2023 16:53:27,Radhika,1
60de3,60de3_session2_lista_speeded_trial115_limo.wav,2,a,peeded,115,limo,865,correct,NA,Apr 27 2023 16:53:39,Radhika,1
60de3,60de3_session2_lista_speeded_trial116_avocado.wav,2,a,peeded,116,avocado,841,correct,NA,Apr 27 2023 16:54:09,Radhika,1
60de3,60de3_session2_lista_speeded_trial117_tomato.wav,2,a,peeded,117,tomato,841,correct,NA,Apr 27 2023 16:54:36,Radhika,1
60de3,60de3_session2_lista_speeded_trial118_swan.wav,2,a,peeded,118,swan,820,correct,NA,Apr 27 2023 16:55:02,Radhika,1
60de3,60de3_session2_lista_speeded_trial119_hat.wav,2,a,peeded,119,hat,713,correct,NA,Apr 27 2023 16:55:47,Radhika,1
60de3,60de3_session2_lista_speeded_trial120_elbow.wav,2,a,peeded,120,elbow,780,correct,NA,Apr 27 2023 16:55:58,Radhika,1
60de3,60de3_session2_lista_speeded_trial121_lamp.wav,2,a,peeded,121,lamp,821,correct,NA,Apr 27 2023 16:56:11,Radhika,1
60de3,60de3_session2_lista_speeded_trial122_battery.wav,2,a,peeded,122,battery,838,correct,NA,Apr 27 2023 16:56:37,Radhika,1
60de3,60de3_session2_lista_speeded_trial123_koala.wav,2,a,peeded,123,koala,786,correct,NA,Apr 27 2023 16:57:02,Radhika,1
60de3,60de3_session2_lista_speeded_trial124_ear.wav,2,a,peeded,124,ear,794,correct,NA,Apr 27 2023 16:57:35,Radhika,1
60de3,60de3_session2_lista_speeded_trial125_sun.wav,2,a,peeded,125,sun,772,correct,NA,Apr 27 2023 16:58:14,Radhika,1
60de3,60de3_session2_lista_speeded_trial126_basket.wav,2,a,peeded,126,basket,745,correct,NA,Apr 27 2023 16:58:26,Radhika,1
60de3,60de3_session2_lista_speeded_trial127_shower.wav,2,a,peeded,127,shower,854,correct,NA,Apr 27 2023 16:59:11,Radhika,1
60de3,60de3_session2_lista_speeded_trial128_rabbit.wav,2,a,peeded,128,rabbit,866,correct,NA,Apr 27 2023 16:59:29,Radhika,1
60de3,60de3_session2_lista_speeded_trial129_medal.wav,2,a,peeded,129,medal,797,correct,NA,Apr 27 2023 16:59:40,Radhika,1
60de3,60de3_session2_lista_speeded_trial130_candle.wav,2,a,peeded,130,candle,923,correct,NA,Apr 27 2023 17:00:02,Radhika,1
60de3,60de3_session2_lista_speeded_trial131_mouth.wav,2,a,peeded,131,mouth,822,correct,NA,Apr 27 2023 17:00:24,Radhika,1
60de3,60de3_session2_lista_speeded_trial132_pepper.wav,2,a,peeded,132,pepper,1207,correct,NA,Apr 27 2023 17:01:01,Radhika,1
60de3,60de3_session2_lista_speeded_trial133_doughnut.wav,2,a,peeded,133,doughnut,994,correct,NA,Apr 27 2023 17:01:30,Radhika,1
60de3,60de3_session2_lista_speeded_trial134_book.wav,2,a,peeded,134,book,952,correct,NA,Apr 27 2023 17:01:54,Radhika,1
60de3,60de3_session2_lista_speeded_trial135_net.wav,2,a,peeded,135,net,802,correct,NA,Apr 27 2023 17:02:05,Radhika,1
60de3,60de3_session2_lista_speeded_trial136_jellyfish.wav,2,a,peeded,136,jellyfish,829,correct,NA,Apr 27 2023 17:02:29,Radhika,1
60de3,60de3_session2_lista_speeded_trial137_saw.wav,2,a,peeded,137,saw,782,correct,NA,Apr 27 2023 17:02:52,Radhika,1
60de3,60de3_session2_lista_speeded_trial138_tiger.wav,2,a,peeded,138,tiger,912,correct,NA,Apr 27 2023 17:03:17,Radhika,1
60de3,60de3_session2_lista_speeded_trial139_bell.wav,2,a,peeded,139,bell,1094,correct,NA,Apr 27 2023 17:03:28,Radhika,1
60de3,60de3_session2_lista_speeded_trial140_skirt.wav,2,a,peeded,140,skirt,1071,correct,NA,Apr 27 2023 17:04:05,Radhika,1
60de3,60de3_session2_lista_speeded_trial141_magnet.wav,2,a,peeded,141,magnet,924,correct,NA,Apr 27 2023 17:04:15,Radhika,1
60de3,60de3_session2_lista_speeded_trial142_knife.wav,2,a,peeded,142,knife,810,correct,NA,Apr 27 2023 17:04:25,Radhika,1
60de3,60de3_session2_lista_speeded_trial143_bench.wav,2,a,peeded,143,bench,876,correct,NA,Apr 27 2023 17:04:38,Radhika,1
60de3,60de3_session2_lista_speeded_trial144_bullet.wav,2,a,peeded,144,bullet,871,correct,NA,Apr 27 2023 17:04:52,Radhika,1
60de3,60de3_session2_lista_speeded_trial145_pencil.wav,2,a,peeded,145,pencil,768,correct,NA,Apr 27 2023 17:05:13,Radhika,1
60de3,60de3_session2_lista_speeded_trial146_star.wav,2,a,peeded,146,star,734,correct,NA,Apr 27 2023 17:05:40,Radhika,1
60de3,60de3_session2_lista_speeded_trial147_potato.wav,2,a,peeded,147,potato,813,correct,NA,Apr 27 2023 17:06:19,Radhika,1
60de3,60de3_session2_lista_speeded_trial148_fridge.wav,2,a,peeded,148,fridge,830,correct,NA,Apr 27 2023 17:06:48,Radhika,1
60de3,60de3_session2_lista_speeded_trial149_cork.wav,2,a,peeded,149,cork,648,correct,NA,Apr 27 2023 17:07:14,Radhika,1
60de3,60de3_session2_lista_speeded_trial150_queen.wav,2,a,peeded,150,queen,783,correct,NA,Apr 27 2023 17:07:56,Radhika,1
