Participant_ID,File_Name,Session,List,Type_Trial,Trial_Nbr,Target,RT,Response_Trial,Comment,Date_Correction,Assessor_Name,Processed
5dec4,5dec4_session2_lista_speeded_trial001_drawer.wav,2,a,peeded,1,drawer,-1,wrong_word,NA,Apr 27 2023 22:04:36,Radhika,1
5dec4,5dec4_session2_lista_speeded_trial002_wheelbarrow.wav,2,a,peeded,2,wheelbarrow,1063,correct,NA,Apr 27 2023 22:04:46,Radhika,1
5dec4,5dec4_session2_lista_speeded_trial003_robot.wav,2,a,peeded,3,robot,831,correct,NA,Apr 27 2023 22:05:10,Radhika,1
5dec4,5dec4_session2_lista_speeded_trial004_fridge.wav,2,a,peeded,4,fridge,894,correct,NA,Apr 27 2023 22:05:36,Radhika,1
5dec4,5dec4_session2_lista_speeded_trial005_mountain.wav,2,a,peeded,5,mountain,938,correct,NA,Apr 27 2023 22:05:50,Radhika,1
5dec4,5dec4_session2_lista_speeded_trial006_mermaid.wav,2,a,peeded,6,mermaid,937,correct,NA,Apr 27 2023 22:05:59,Radhika,1
5dec4,5dec4_session2_lista_speeded_trial007_pocket.wav,2,a,peeded,7,pocket,1080,correct,NA,Apr 27 2023 22:06:17,Radhika,1
5dec4,5dec4_session2_lista_speeded_trial008_kite.wav,2,a,peeded,8,kite,939,correct,NA,Apr 27 2023 22:06:40,Radhika,1
5dec4,5dec4_session2_lista_speeded_trial009_key.wav,2,a,peeded,9,key,829,correct,NA,Apr 27 2023 22:07:03,Radhika,1
5dec4,5dec4_session2_lista_speeded_trial010_pineapple.wav,2,a,peeded,10,pineapple,862,correct,NA,Apr 27 2023 22:07:23,Radhika,1
5dec4,5dec4_session2_lista_speeded_trial011_clown.wav,2,a,peeded,11,clown,882,correct,NA,Apr 27 2023 22:07:51,Radhika,1
5dec4,5dec4_session2_lista_speeded_trial012_ruler.wav,2,a,peeded,12,ruler,866,correct,NA,Apr 27 2023 22:08:00,Radhika,1
5dec4,5dec4_session2_lista_speeded_trial013_shield.wav,2,a,peeded,13,shield,959,correct,NA,Apr 27 2023 22:08:18,Radhika,1
5dec4,5dec4_session2_lista_speeded_trial014_tattoo.wav,2,a,peeded,14,tattoo,-1,wrong_word,NA,Apr 27 2023 22:08:32,Radhika,1
5dec4,5dec4_session2_lista_speeded_trial015_bench.wav,2,a,peeded,15,bench,904,correct,NA,Apr 27 2023 22:08:44,Radhika,1
5dec4,5dec4_session2_lista_speeded_trial016_pencil.wav,2,a,peeded,16,pencil,877,correct,NA,Apr 27 2023 22:09:08,Radhika,1
5dec4,5dec4_session2_lista_speeded_trial017_owl.wav,2,a,peeded,17,owl,802,correct,NA,Apr 27 2023 22:09:22,Radhika,1
5dec4,5dec4_session2_lista_speeded_trial018_dice.wav,2,a,peeded,18,dice,843,correct,NA,Apr 27 2023 22:09:44,Radhika,1
5dec4,5dec4_session2_lista_speeded_trial019_potato.wav,2,a,peeded,19,potato,907,correct,NA,Apr 27 2023 22:10:46,Radhika,1
5dec4,5dec4_session2_lista_speeded_trial020_bullet.wav,2,a,peeded,20,bullet,1196,correct,NA,Apr 27 2023 22:10:57,Radhika,1
5dec4,5dec4_session2_lista_speeded_trial021_map.wav,2,a,peeded,21,map,857,correct,NA,Apr 27 2023 22:11:07,Radhika,1
5dec4,5dec4_session2_lista_speeded_trial022_skirt.wav,2,a,peeded,22,skirt,-1,wrong_word,NA,Apr 27 2023 22:11:37,Radhika,1
5dec4,5dec4_session2_lista_speeded_trial023_ear.wav,2,a,peeded,23,ear,880,correct,NA,Apr 27 2023 22:11:38,Radhika,1
5dec4,5dec4_session2_lista_speeded_trial024_avocado.wav,2,a,peeded,24,avocado,984,correct,NA,Apr 27 2023 22:11:52,Radhika,1
5dec4,5dec4_session2_lista_speeded_trial025_tree.wav,2,a,peeded,25,tree,842,correct,NA,Apr 27 2023 22:12:31,Radhika,1
5dec4,5dec4_session2_lista_speeded_trial026_fireplace.wav,2,a,peeded,26,fireplace,1128,correct,NA,Apr 27 2023 23:29:08,Radhika,1
5dec4,5dec4_session2_lista_speeded_trial027_zebra.wav,2,a,peeded,27,zebra,784,correct,NA,Apr 27 2023 23:29:45,Radhika,1
5dec4,5dec4_session2_lista_speeded_trial028_mouth.wav,2,a,peeded,28,mouth,996,correct,NA,Apr 27 2023 23:29:57,Radhika,1
5dec4,5dec4_session2_lista_speeded_trial029_zip.wav,2,a,peeded,29,zip,1124,correct,NA,Apr 27 2023 23:30:12,Radhika,1
5dec4,5dec4_session2_lista_speeded_trial030_suitcase.wav,2,a,peeded,30,suitcase,-1,no_resp,NA,Apr 27 2023 23:30:21,Radhika,1
5dec4,5dec4_session2_lista_speeded_trial031_caterpillar.wav,2,a,peeded,31,caterpillar,967,correct,NA,Apr 27 2023 23:30:43,Radhika,1
5dec4,5dec4_session2_lista_speeded_trial032_elbow.wav,2,a,peeded,32,elbow,1045,correct,NA,Apr 27 2023 23:31:06,Radhika,1
5dec4,5dec4_session2_lista_speeded_trial033_curtain.wav,2,a,peeded,33,curtain,1121,correct,NA,Apr 27 2023 23:31:18,Radhika,1
5dec4,5dec4_session2_lista_speeded_trial034_lung.wav,2,a,peeded,34,lung,1189,correct,NA,Apr 27 2023 23:32:19,Radhika,1
5dec4,5dec4_session2_lista_speeded_trial035_butter.wav,2,a,peeded,35,butter,1113,correct,NA,Apr 27 2023 23:32:31,Radhika,1
5dec4,5dec4_session2_lista_speeded_trial036_sausage.wav,2,a,peeded,36,sausage,939,correct,NA,Apr 27 2023 23:32:52,Radhika,1
5dec4,5dec4_session2_lista_speeded_trial037_arm.wav,2,a,peeded,37,arm,951,correct,NA,Apr 27 2023 23:33:11,Radhika,1
5dec4,5dec4_session2_lista_speeded_trial038_shoe.wav,2,a,peeded,38,shoe,862,correct,NA,Apr 27 2023 23:33:33,Radhika,1
5dec4,5dec4_session2_lista_speeded_trial039_fence.wav,2,a,peeded,39,fence,923,correct,NA,Apr 27 2023 23:33:56,Radhika,1
5dec4,5dec4_session2_lista_speeded_trial040_orange.wav,2,a,peeded,40,orange,1284,correct,NA,Apr 27 2023 23:34:23,Radhika,1
5dec4,5dec4_session2_lista_speeded_trial041_coat.wav,2,a,peeded,41,coat,-1,wrong_word,NA,Apr 27 2023 23:34:31,Radhika,1
5dec4,5dec4_session2_lista_speeded_trial042_rocket.wav,2,a,peeded,42,rocket,1058,correct,NA,Apr 27 2023 23:34:44,Radhika,1
5dec4,5dec4_session2_lista_speeded_trial043_star.wav,2,a,peeded,43,star,802,correct,NA,Apr 27 2023 23:35:09,Radhika,1
5dec4,5dec4_session2_lista_speeded_trial044_gym.wav,2,a,peeded,44,gym,1349,correct,NA,Apr 27 2023 23:35:24,Radhika,1
5dec4,5dec4_session2_lista_speeded_trial045_book.wav,2,a,peeded,45,book,902,correct,NA,Apr 27 2023 23:35:40,Radhika,1
5dec4,5dec4_session2_lista_speeded_trial046_teacher.wav,2,a,peeded,46,teacher,900,correct,NA,Apr 27 2023 23:35:57,Radhika,1
5dec4,5dec4_session2_lista_speeded_trial047_nest.wav,2,a,peeded,47,nest,971,correct,NA,Apr 27 2023 23:36:10,Radhika,1
5dec4,5dec4_session2_lista_speeded_trial048_peg.wav,2,a,peeded,48,peg,1088,correct,NA,Apr 27 2023 23:36:30,Radhika,1
5dec4,5dec4_session2_lista_speeded_trial049_wall.wav,2,a,peeded,49,wall,1027,correct,NA,Apr 27 2023 23:36:40,Radhika,1
5dec4,5dec4_session2_lista_speeded_trial050_bear.wav,2,a,peeded,50,bear,833,correct,NA,Apr 27 2023 23:36:53,Radhika,1
5dec4,5dec4_session2_lista_speeded_trial051_flag.wav,2,a,peeded,51,flag,870,correct,NA,Apr 28 2023 00:08:10,Radhika,1
5dec4,5dec4_session2_lista_speeded_trial052_apple.wav,2,a,peeded,52,apple,-1,wrong_word,NA,Apr 28 2023 00:08:18,Radhika,1
5dec4,5dec4_session2_lista_speeded_trial053_rhino.wav,2,a,peeded,53,rhino,898,correct,NA,Apr 28 2023 00:08:29,Radhika,1
5dec4,5dec4_session2_lista_speeded_trial054_cork.wav,2,a,peeded,54,cork,-1,no_resp,NA,Apr 28 2023 00:08:36,Radhika,1
5dec4,5dec4_session2_lista_speeded_trial055_candle.wav,2,a,peeded,55,candle,1118,correct,NA,Apr 28 2023 00:09:03,Radhika,1
5dec4,5dec4_session2_lista_speeded_trial056_tomato.wav,2,a,peeded,56,tomato,899,correct,NA,Apr 28 2023 00:09:18,Radhika,1
5dec4,5dec4_session2_lista_speeded_trial057_shower.wav,2,a,peeded,57,shower,1063,correct,NA,Apr 28 2023 00:09:35,Radhika,1
5dec4,5dec4_session2_lista_speeded_trial058_jellyfish.wav,2,a,peeded,58,jellyfish,933,correct,NA,Apr 28 2023 00:09:52,Radhika,1
5dec4,5dec4_session2_lista_speeded_trial059_helicopter.wav,2,a,peeded,59,helicopter,852,correct,NA,Apr 28 2023 00:10:21,Radhika,1
5dec4,5dec4_session2_lista_speeded_trial060_cherry.wav,2,a,peeded,60,cherry,-1,correct,NA,Apr 28 2023 00:10:43,Radhika,1
5dec4,5dec4_session2_lista_speeded_trial061_sword.wav,2,a,peeded,61,sword,851,correct,NA,Apr 28 2023 00:11:15,Radhika,1
5dec4,5dec4_session2_lista_speeded_trial062_scissors.wav,2,a,peeded,62,scissors,778,correct,NA,Apr 28 2023 00:11:40,Radhika,1
5dec4,5dec4_session2_lista_speeded_trial063_crab.wav,2,a,peeded,63,crab,794,correct,NA,Apr 28 2023 00:12:01,Radhika,1
5dec4,5dec4_session2_lista_speeded_trial064_drum.wav,2,a,peeded,64,drum,911,correct,NA,Apr 28 2023 00:12:16,Radhika,1
5dec4,5dec4_session2_lista_speeded_trial065_bus.wav,2,a,peeded,65,bus,911,correct,NA,Apr 28 2023 00:12:34,Radhika,1
5dec4,5dec4_session2_lista_speeded_trial066_whale.wav,2,a,peeded,66,whale,-1,wrong_word,NA,Apr 28 2023 00:12:43,Radhika,1
5dec4,5dec4_session2_lista_speeded_trial067_judge.wav,2,a,peeded,67,judge,-1,wrong_word,NA,Apr 28 2023 00:13:33,Radhika,1
5dec4,5dec4_session2_lista_speeded_trial068_fox.wav,2,a,peeded,68,fox,925,correct,NA,Apr 28 2023 00:13:56,Radhika,1
5dec4,5dec4_session2_lista_speeded_trial069_saw.wav,2,a,peeded,69,saw,897,correct,NA,Apr 28 2023 00:14:14,Radhika,1
5dec4,5dec4_session2_lista_speeded_trial070_lawnmower.wav,2,a,peeded,70,lawnmower,-1,disfluency,NA,Apr 28 2023 00:14:25,Radhika,1
5dec4,5dec4_session2_lista_speeded_trial071_camel.wav,2,a,peeded,71,camel,945,correct,NA,Apr 28 2023 00:14:40,Radhika,1
5dec4,5dec4_session2_lista_speeded_trial072_arrow.wav,2,a,peeded,72,arrow,960,correct,NA,Apr 28 2023 00:15:14,Radhika,1
5dec4,5dec4_session2_lista_speeded_trial073_wave.wav,2,a,peeded,73,wave,-1,wrong_word,NA,Apr 28 2023 00:15:21,Radhika,1
5dec4,5dec4_session2_lista_speeded_trial074_beak.wav,2,a,peeded,74,beak,-1,wrong_word,NA,Apr 28 2023 00:15:28,Radhika,1
5dec4,5dec4_session2_lista_speeded_trial075_wing.wav,2,a,peeded,75,wing,1029,correct,NA,Apr 28 2023 00:15:39,Radhika,1
5dec4,5dec4_session2_lista_speeded_trial076_ghost.wav,2,a,peeded,76,ghost,889,correct,NA,Apr 28 2023 00:15:56,Radhika,1
5dec4,5dec4_session2_lista_speeded_trial077_thumb.wav,2,a,peeded,77,thumb,861,correct,NA,Apr 28 2023 00:16:33,Radhika,1
5dec4,5dec4_session2_lista_speeded_trial078_sun.wav,2,a,peeded,78,sun,840,correct,NA,Apr 28 2023 00:16:51,Radhika,1
5dec4,5dec4_session2_lista_speeded_trial079_pipe.wav,2,a,peeded,79,pipe,955,correct,NA,Apr 28 2023 00:17:03,Radhika,1
5dec4,5dec4_session2_lista_speeded_trial080_triangle.wav,2,a,peeded,80,triangle,814,correct,NA,Apr 28 2023 00:17:25,Radhika,1
5dec4,5dec4_session2_lista_speeded_trial081_lighter.wav,2,a,peeded,81,lighter,1151,correct,NA,Apr 28 2023 00:17:37,Radhika,1
5dec4,5dec4_session2_lista_speeded_trial082_doughnut.wav,2,a,peeded,82,doughnut,874,correct,NA,Apr 28 2023 00:19:15,Radhika,1
5dec4,5dec4_session2_lista_speeded_trial083_net.wav,2,a,peeded,83,net,1139,correct,NA,Apr 28 2023 00:19:45,Radhika,1
5dec4,5dec4_session2_lista_speeded_trial084_magnet.wav,2,a,peeded,84,magnet,1170,correct,NA,Apr 28 2023 00:19:59,Radhika,1
5dec4,5dec4_session2_lista_speeded_trial085_kangaroo.wav,2,a,peeded,85,kangaroo,964,correct,NA,Apr 28 2023 00:20:19,Radhika,1
5dec4,5dec4_session2_lista_speeded_trial086_tray.wav,2,a,peeded,86,tray,1098,correct,NA,Apr 28 2023 00:21:02,Radhika,1
5dec4,5dec4_session2_lista_speeded_trial087_battery.wav,2,a,peeded,87,battery,872,correct,NA,Apr 28 2023 00:21:16,Radhika,1
5dec4,5dec4_session2_lista_speeded_trial088_butterfly.wav,2,a,peeded,88,butterfly,1061,correct,NA,Apr 28 2023 00:21:38,Radhika,1
5dec4,5dec4_session2_lista_speeded_trial089_train.wav,2,a,peeded,89,train,981,correct,NA,Apr 28 2023 00:21:58,Radhika,1
5dec4,5dec4_session2_lista_speeded_trial090_queen.wav,2,a,peeded,90,queen,941,correct,NA,Apr 28 2023 00:22:15,Radhika,1
5dec4,5dec4_session2_lista_speeded_trial091_fairy.wav,2,a,peeded,91,fairy,990,correct,NA,Apr 28 2023 00:22:40,Radhika,1
5dec4,5dec4_session2_lista_speeded_trial092_bell.wav,2,a,peeded,92,bell,988,correct,NA,Apr 28 2023 00:22:54,Radhika,1
5dec4,5dec4_session2_lista_speeded_trial093_submarine.wav,2,a,peeded,93,submarine,1051,correct,NA,Apr 28 2023 00:23:34,Radhika,1
5dec4,5dec4_session2_lista_speeded_trial094_tractor.wav,2,a,peeded,94,tractor,880,correct,NA,Apr 28 2023 00:24:01,Radhika,1
5dec4,5dec4_session2_lista_speeded_trial095_swan.wav,2,a,peeded,95,swan,886,correct,NA,Apr 28 2023 00:24:23,Radhika,1
5dec4,5dec4_session2_lista_speeded_trial096_tie.wav,2,a,peeded,96,tie,906,correct,NA,Apr 28 2023 00:25:09,Radhika,1
5dec4,5dec4_session2_lista_speeded_trial097_plumber.wav,2,a,peeded,97,plumber,-1,disfluency,NA,Apr 28 2023 00:25:17,Radhika,1
5dec4,5dec4_session2_lista_speeded_trial098_basket.wav,2,a,peeded,98,basket,903,correct,NA,Apr 28 2023 00:25:32,Radhika,1
5dec4,5dec4_session2_lista_speeded_trial099_island.wav,2,a,peeded,99,island,1031,correct,NA,Apr 28 2023 00:25:50,Radhika,1
5dec4,5dec4_session2_lista_speeded_trial100_onion.wav,2,a,peeded,100,onion,1298,correct,NA,Apr 28 2023 00:26:04,Radhika,1
5dec4,5dec4_session2_lista_speeded_trial101_bone.wav,2,a,peeded,101,bone,-1,correct,NA,Apr 28 2023 00:26:16,Radhika,1
5dec4,5dec4_session2_lista_speeded_trial102_bracelet.wav,2,a,peeded,102,bracelet,-1,wrong_word,NA,Apr 28 2023 00:26:37,Radhika,1
5dec4,5dec4_session2_lista_speeded_trial103_pear.wav,2,a,peeded,103,pear,1088,correct,NA,Apr 28 2023 00:26:54,Radhika,1
5dec4,5dec4_session2_lista_speeded_trial104_pepper.wav,2,a,peeded,104,pepper,1249,correct,NA,Apr 28 2023 00:27:15,Radhika,1
5dec4,5dec4_session2_lista_speeded_trial105_donkey.wav,2,a,peeded,105,donkey,906,correct,NA,Apr 28 2023 00:27:32,Radhika,1
5dec4,5dec4_session2_lista_speeded_trial106_glove.wav,2,a,peeded,106,glove,941,correct,NA,Apr 28 2023 00:28:06,Radhika,1
5dec4,5dec4_session2_lista_speeded_trial107_boxer.wav,2,a,peeded,107,boxer,1101,correct,NA,Apr 28 2023 00:28:26,Radhika,1
5dec4,5dec4_session2_lista_speeded_trial108_windmill.wav,2,a,peeded,108,windmill,901,correct,NA,Apr 28 2023 00:28:39,Radhika,1
5dec4,5dec4_session2_lista_speeded_trial109_lighthouse.wav,2,a,peeded,109,lighthouse,952,correct,NA,Apr 28 2023 00:28:54,Radhika,1
5dec4,5dec4_session2_lista_speeded_trial110_flipper.wav,2,a,peeded,110,flipper,-1,disfluency,NA,Apr 28 2023 00:29:01,Radhika,1
5dec4,5dec4_session2_lista_speeded_trial111_soap.wav,2,a,peeded,111,soap,1013,correct,NA,Apr 28 2023 00:29:25,Radhika,1
5dec4,5dec4_session2_lista_speeded_trial112_dummy.wav,2,a,peeded,112,dummy,1456,correct,NA,Apr 28 2023 00:29:49,Radhika,1
5dec4,5dec4_session2_lista_speeded_trial113_hat.wav,2,a,peeded,113,hat,820,correct,NA,Apr 28 2023 00:30:13,Radhika,1
5dec4,5dec4_session2_lista_speeded_trial114_heel.wav,2,a,peeded,114,heel,-1,wrong_word,NA,Apr 28 2023 00:30:21,Radhika,1
5dec4,5dec4_session2_lista_speeded_trial115_tongue.wav,2,a,peeded,115,tongue,1308,correct,NA,Apr 28 2023 00:30:40,Radhika,1
5dec4,5dec4_session2_lista_speeded_trial116_squirrel.wav,2,a,peeded,116,squirrel,884,correct,NA,Apr 28 2023 00:31:03,Radhika,1
5dec4,5dec4_session2_lista_speeded_trial117_doctor.wav,2,a,peeded,117,doctor,1061,correct,NA,Apr 28 2023 00:31:35,Radhika,1
5dec4,5dec4_session2_lista_speeded_trial118_dress.wav,2,a,peeded,118,dress,871,correct,NA,Apr 28 2023 00:32:02,Radhika,1
5dec4,5dec4_session2_lista_speeded_trial119_tunnel.wav,2,a,peeded,119,tunnel,1107,correct,NA,Apr 28 2023 00:32:23,Radhika,1
5dec4,5dec4_session2_lista_speeded_trial120_lamp.wav,2,a,peeded,120,lamp,878,correct,NA,Apr 28 2023 00:32:36,Radhika,1
5dec4,5dec4_session2_lista_speeded_trial121_hippo.wav,2,a,peeded,121,hippo,1068,correct,NA,Apr 28 2023 00:32:48,Radhika,1
5dec4,5dec4_session2_lista_speeded_trial122_castle.wav,2,a,peeded,122,castle,1023,correct,NA,Apr 28 2023 00:33:19,Radhika,1
5dec4,5dec4_session2_lista_speeded_trial123_puppet.wav,2,a,peeded,123,puppet,-1,disfluency,NA,Apr 28 2023 00:33:25,Radhika,1
5dec4,5dec4_session2_lista_speeded_trial124_bull.wav,2,a,peeded,124,bull,1284,correct,NA,Apr 28 2023 00:33:37,Radhika,1
5dec4,5dec4_session2_lista_speeded_trial125_olive.wav,2,a,peeded,125,olive,1003,correct,NA,Apr 28 2023 00:33:57,Radhika,1
5dec4,5dec4_session2_lista_speeded_trial126_bottle.wav,2,a,peeded,126,bottle,928,correct,NA,Apr 28 2023 00:34:19,Radhika,1
5dec4,5dec4_session2_lista_speeded_trial127_koala.wav,2,a,peeded,127,koala,1136,correct,NA,Apr 28 2023 00:34:43,Radhika,1
5dec4,5dec4_session2_lista_speeded_trial128_compass.wav,2,a,peeded,128,compass,1013,correct,NA,Apr 28 2023 00:35:10,Radhika,1
5dec4,5dec4_session2_lista_speeded_trial129_tap.wav,2,a,peeded,129,tap,860,correct,NA,Apr 28 2023 00:35:30,Radhika,1
5dec4,5dec4_session2_lista_speeded_trial130_tambourine.wav,2,a,peeded,130,tambourine,-1,wrong_word,NA,Apr 28 2023 00:35:42,Radhika,1
5dec4,5dec4_session2_lista_speeded_trial131_rabbit.wav,2,a,peeded,131,rabbit,-1,disfluency,NA,Apr 28 2023 00:35:53,Radhika,1
5dec4,5dec4_session2_lista_speeded_trial132_snake.wav,2,a,peeded,132,snake,838,correct,NA,Apr 28 2023 00:36:18,Radhika,1
5dec4,5dec4_session2_lista_speeded_trial133_tiger.wav,2,a,peeded,133,tiger,994,correct,NA,Apr 28 2023 00:36:33,Radhika,1
5dec4,5dec4_session2_lista_speeded_trial134_sweet.wav,2,a,peeded,134,sweet,931,correct,NA,Apr 28 2023 00:36:52,Radhika,1
5dec4,5dec4_session2_lista_speeded_trial135_goat.wav,2,a,peeded,135,goat,930,correct,NA,Apr 28 2023 00:37:34,Radhika,1
5dec4,5dec4_session2_lista_speeded_trial136_comb.wav,2,a,peeded,136,comb,-1,wrong_word,NA,Apr 28 2023 00:37:40,Radhika,1
5dec4,5dec4_session2_lista_speeded_trial137_fork.wav,2,a,peeded,137,fork,990,correct,NA,Apr 28 2023 00:38:28,Radhika,1
5dec4,5dec4_session2_lista_speeded_trial138_computer.wav,2,a,peeded,138,computer,950,correct,NA,Apr 28 2023 00:38:46,Radhika,1
5dec4,5dec4_session2_lista_speeded_trial139_flower.wav,2,a,peeded,139,flower,941,correct,NA,Apr 28 2023 00:39:16,Radhika,1
5dec4,5dec4_session2_lista_speeded_trial140_kitchen.wav,2,a,peeded,140,kitchen,1325,correct,NA,Apr 28 2023 00:39:38,Radhika,1
5dec4,5dec4_session2_lista_speeded_trial141_bike.wav,2,a,peeded,141,bike,885,correct,NA,Apr 28 2023 00:39:49,Radhika,1
5dec4,5dec4_session2_lista_speeded_trial142_medal.wav,2,a,peeded,142,medal,891,correct,NA,Apr 28 2023 00:40:03,Radhika,1
5dec4,5dec4_session2_lista_speeded_trial143_circle.wav,2,a,peeded,143,circle,-1,no_resp,NA,Apr 28 2023 00:40:09,Radhika,1
5dec4,5dec4_session2_lista_speeded_trial144_limo.wav,2,a,peeded,144,limo,1221,correct,NA,Apr 28 2023 00:40:21,Radhika,1
5dec4,5dec4_session2_lista_speeded_trial145_bib.wav,2,a,peeded,145,bib,1490,correct,NA,Apr 28 2023 00:40:43,Radhika,1
5dec4,5dec4_session2_lista_speeded_trial146_rose.wav,2,a,peeded,146,rose,-1,wrong_word,NA,Apr 28 2023 00:40:51,Radhika,1
5dec4,5dec4_session2_lista_speeded_trial147_suit.wav,2,a,peeded,147,suit,1178,correct,NA,Apr 28 2023 00:41:27,Radhika,1
5dec4,5dec4_session2_lista_speeded_trial148_carrot.wav,2,a,peeded,148,carrot,854,correct,NA,Apr 28 2023 00:41:44,Radhika,1
5dec4,5dec4_session2_lista_speeded_trial149_kiwi.wav,2,a,peeded,149,kiwi,-1,disfluency,NA,Apr 28 2023 00:42:32,Radhika,1
5dec4,5dec4_session2_lista_speeded_trial150_knife.wav,2,a,peeded,150,knife,890,correct,NA,Apr 28 2023 00:42:53,Radhika,1
