Participant_ID,File_Name,Session,List,Type_Trial,Trial_Nbr,Target,RT,Response_Trial,Comment,Date_Correction,Assessor_Name,Processed
62b1f,62b1f_session1_listb_naming_trial001_sheep.wav,1,b,naming,1,sheep,-1,uncertain,bad quality,Jan 20 2023 11:14:08,Agnieszka,1
62b1f,62b1f_session1_listb_naming_trial002_butcher.wav,1,b,naming,2,butcher,1245,correct,NA,Jan 20 2023 11:14:22,Agnieszka,1
62b1f,62b1f_session1_listb_naming_trial003_pizza.wav,1,b,naming,3,pizza,1258,correct,NA,Jan 20 2023 11:14:31,Agnieszka,1
62b1f,62b1f_session1_listb_naming_trial004_earring.wav,1,b,naming,4,earring,1327,correct,NA,Jan 20 2023 11:14:46,Agnieszka,1
62b1f,62b1f_session1_listb_naming_trial005_condom.wav,1,b,naming,5,condom,971,correct,NA,Jan 20 2023 11:15:04,Agnieszka,1
62b1f,62b1f_session1_listb_naming_trial006_dinosaur.wav,1,b,naming,6,dinosaur,1927,correct,NA,Jan 20 2023 11:15:12,Agnieszka,1
62b1f,62b1f_session1_listb_naming_trial007_car.wav,1,b,naming,7,car,917,correct,NA,Jan 20 2023 11:15:21,Agnieszka,1
62b1f,62b1f_session1_listb_naming_trial008_pirate.wav,1,b,naming,8,pirate,923,correct,NA,Jan 20 2023 11:15:31,Agnieszka,1
62b1f,62b1f_session1_listb_naming_trial009_pumpkin.wav,1,b,naming,9,pumpkin,1188,correct,NA,Jan 20 2023 11:15:48,Agnieszka,1
62b1f,62b1f_session1_listb_naming_trial010_cloud.wav,1,b,naming,10,cloud,1390,correct,NA,Jan 20 2023 11:16:01,Agnieszka,1
62b1f,62b1f_session1_listb_naming_trial011_chain.wav,1,b,naming,11,chain,895,correct,NA,Jan 20 2023 11:16:13,Agnieszka,1
62b1f,62b1f_session1_listb_naming_trial012_coffin.wav,1,b,naming,12,coffin,888,correct,NA,Jan 20 2023 11:16:22,Agnieszka,1
62b1f,62b1f_session1_listb_naming_trial013_parachute.wav,1,b,naming,13,parachute,958,correct,NA,Jan 20 2023 11:16:59,Agnieszka,1
62b1f,62b1f_session1_listb_naming_trial014_brain.wav,1,b,naming,14,brain,974,correct,NA,Jan 20 2023 11:17:12,Agnieszka,1
62b1f,62b1f_session1_listb_naming_trial015_fist.wav,1,b,naming,15,fist,1008,correct,NA,Jan 20 2023 11:17:21,Agnieszka,1
62b1f,62b1f_session1_listb_naming_trial016_coffee.wav,1,b,naming,16,coffee,1312,correct,NA,Jan 20 2023 11:17:37,Agnieszka,1
62b1f,62b1f_session1_listb_naming_trial017_heart.wav,1,b,naming,17,heart,1163,correct,NA,Jan 20 2023 11:17:49,Agnieszka,1
62b1f,62b1f_session1_listb_naming_trial018_thermometer.wav,1,b,naming,18,thermometer,1971,correct,NA,Jan 20 2023 11:17:58,Agnieszka,1
62b1f,62b1f_session1_listb_naming_trial019_broccoli.wav,1,b,naming,19,broccoli,1034,correct,NA,Jan 20 2023 11:18:07,Agnieszka,1
62b1f,62b1f_session1_listb_naming_trial020_gun.wav,1,b,naming,20,gun,986,correct,NA,Jan 20 2023 11:18:36,Agnieszka,1
62b1f,62b1f_session1_listb_naming_trial021_stapler.wav,1,b,naming,21,stapler,1056,correct,NA,Jan 20 2023 11:18:43,Agnieszka,1
62b1f,62b1f_session1_listb_naming_trial022_hand.wav,1,b,naming,22,hand,1040,correct,NA,Jan 20 2023 11:18:52,Agnieszka,1
62b1f,62b1f_session1_listb_naming_trial023_bible.wav,1,b,naming,23,bible,964,correct,NA,Jan 20 2023 11:19:00,Agnieszka,1
62b1f,62b1f_session1_listb_naming_trial024_ambulance.wav,1,b,naming,24,ambulance,901,correct,NA,Jan 20 2023 11:19:08,Agnieszka,1
62b1f,62b1f_session1_listb_naming_trial025_fruit.wav,1,b,naming,25,fruit,1147,correct,NA,Jan 20 2023 11:19:20,Agnieszka,1
62b1f,62b1f_session1_listb_naming_trial026_greenhouse.wav,1,b,naming,26,greenhouse,1103,correct,NA,Jan 20 2023 11:20:33,Agnieszka,1
62b1f,62b1f_session1_listb_naming_trial027_lion.wav,1,b,naming,27,lion,1043,correct,NA,Jan 20 2023 11:20:52,Agnieszka,1
62b1f,62b1f_session1_listb_naming_trial028_bin.wav,1,b,naming,28,bin,1065,correct,NA,Jan 20 2023 11:21:00,Agnieszka,1
62b1f,62b1f_session1_listb_naming_trial029_cone.wav,1,b,naming,29,cone,983,correct,NA,Jan 20 2023 11:21:18,Agnieszka,1
62b1f,62b1f_session1_listb_naming_trial030_chair.wav,1,b,naming,30,chair,1034,uncertain,bad quality,Jan 20 2023 11:21:38,Agnieszka,1
62b1f,62b1f_session1_listb_naming_trial031_knee.wav,1,b,naming,31,knee,1144,correct,NA,Jan 20 2023 11:21:46,Agnieszka,1
62b1f,62b1f_session1_listb_naming_trial032_foot.wav,1,b,naming,32,foot,955,correct,NA,Jan 20 2023 11:21:54,Agnieszka,1
62b1f,62b1f_session1_listb_naming_trial033_fan.wav,1,b,naming,33,fan,961,correct,NA,Jan 20 2023 11:22:08,Agnieszka,1
62b1f,62b1f_session1_listb_naming_trial034_belt.wav,1,b,naming,34,belt,1109,correct,NA,Jan 20 2023 11:22:15,Agnieszka,1
62b1f,62b1f_session1_listb_naming_trial035_house.wav,1,b,naming,35,house,1782,correct,NA,Jan 20 2023 11:22:27,Agnieszka,1
62b1f,62b1f_session1_listb_naming_trial036_hedgehog.wav,1,b,naming,36,hedgehog,892,correct,NA,Jan 20 2023 11:22:35,Agnieszka,1
62b1f,62b1f_session1_listb_naming_trial037_shark.wav,1,b,naming,37,shark,1274,correct,NA,Jan 20 2023 11:22:45,Agnieszka,1
62b1f,62b1f_session1_listb_naming_trial038_pilot.wav,1,b,naming,38,pilot,1479,correct,NA,Jan 20 2023 11:22:53,Agnieszka,1
62b1f,62b1f_session1_listb_naming_trial039_bed.wav,1,b,naming,39,bed,1116,correct,NA,Jan 20 2023 11:23:01,Agnieszka,1
62b1f,62b1f_session1_listb_naming_trial040_farm.wav,1,b,naming,40,farm,1750,correct,NA,Jan 20 2023 11:23:08,Agnieszka,1
62b1f,62b1f_session1_listb_naming_trial041_microphone.wav,1,b,naming,41,microphone,1031,correct,NA,Jan 20 2023 11:23:16,Agnieszka,1
62b1f,62b1f_session1_listb_naming_trial042_football.wav,1,b,naming,42,football,860,correct,NA,Jan 20 2023 11:23:30,Agnieszka,1
62b1f,62b1f_session1_listb_naming_trial043_calendar.wav,1,b,naming,43,calendar,958,correct,NA,Jan 20 2023 11:23:43,Agnieszka,1
62b1f,62b1f_session1_listb_naming_trial044_skateboard.wav,1,b,naming,44,skateboard,996,correct,NA,Jan 20 2023 11:23:57,Agnieszka,1
62b1f,62b1f_session1_listb_naming_trial045_girl.wav,1,b,naming,45,girl,1034,correct,NA,Jan 20 2023 11:24:23,Agnieszka,1
62b1f,62b1f_session1_listb_naming_trial046_frog.wav,1,b,naming,46,frog,895,correct,NA,Jan 20 2023 11:24:35,Agnieszka,1
62b1f,62b1f_session1_listb_naming_trial047_glasses.wav,1,b,naming,47,glasses,911,correct,NA,Jan 20 2023 11:24:44,Agnieszka,1
62b1f,62b1f_session1_listb_naming_trial048_bat.wav,1,b,naming,48,bat,1002,correct,NA,Jan 20 2023 11:24:51,Agnieszka,1
62b1f,62b1f_session1_listb_naming_trial049_vein.wav,1,b,naming,49,vein,1163,correct,NA,Jan 20 2023 11:24:58,Agnieszka,1
62b1f,62b1f_session1_listb_naming_trial050_telephone.wav,1,b,naming,50,telephone,1018,correct,NA,Jan 20 2023 11:25:07,Agnieszka,1
62b1f,62b1f_session1_listb_naming_trial051_screwdriver.wav,1,b,naming,51,screwdriver,1435,correct,NA,Jan 20 2023 11:25:21,Agnieszka,1
62b1f,62b1f_session1_listb_naming_trial052_choir.wav,1,b,naming,52,choir,1018,correct,NA,Jan 20 2023 11:25:27,Agnieszka,1
62b1f,62b1f_session1_listb_naming_trial053_cage.wav,1,b,naming,53,cage,1485,correct,NA,Jan 20 2023 11:25:36,Agnieszka,1
62b1f,62b1f_session1_listb_naming_trial054_leaf.wav,1,b,naming,54,leaf,1059,correct,NA,Jan 20 2023 11:25:44,Agnieszka,1
62b1f,62b1f_session1_listb_naming_trial055_witch.wav,1,b,naming,55,witch,-1,uncertain,NA,Jan 20 2023 11:26:05,Agnieszka,1
62b1f,62b1f_session1_listb_naming_trial056_road.wav,1,b,naming,56,road,-1,no_resp,NA,Jan 20 2023 11:26:14,Agnieszka,1
62b1f,62b1f_session1_listb_naming_trial057_dragon.wav,1,b,naming,57,dragon,1077,correct,NA,Jan 20 2023 11:26:31,Agnieszka,1
62b1f,62b1f_session1_listb_naming_trial058_beard.wav,1,b,naming,58,beard,1015,correct,NA,Jan 20 2023 11:26:40,Agnieszka,1
62b1f,62b1f_session1_listb_naming_trial059_dog.wav,1,b,naming,59,dog,1091,correct,NA,Jan 20 2023 11:26:48,Agnieszka,1
62b1f,62b1f_session1_listb_naming_trial060_baby.wav,1,b,naming,60,baby,1034,correct,NA,Jan 20 2023 11:26:56,Agnieszka,1
62b1f,62b1f_session1_listb_naming_trial061_ring.wav,1,b,naming,61,ring,1034,correct,NA,Jan 20 2023 11:27:03,Agnieszka,1
62b1f,62b1f_session1_listb_naming_trial062_lemon.wav,1,b,naming,62,lemon,1053,correct,NA,Jan 20 2023 11:27:12,Agnieszka,1
62b1f,62b1f_session1_listb_naming_trial063_strawberry.wav,1,b,naming,63,strawberry,1097,correct,NA,Jan 20 2023 11:27:24,Agnieszka,1
62b1f,62b1f_session1_listb_naming_trial064_roof.wav,1,b,naming,64,roof,1289,correct,NA,Jan 20 2023 11:27:40,Agnieszka,1
62b1f,62b1f_session1_listb_naming_trial065_finger.wav,1,b,naming,65,finger,996,correct,NA,Jan 20 2023 11:27:52,Agnieszka,1
62b1f,62b1f_session1_listb_naming_trial066_dentist.wav,1,b,naming,66,dentist,1362,correct,NA,Jan 20 2023 11:28:00,Agnieszka,1
62b1f,62b1f_session1_listb_naming_trial067_penguin.wav,1,b,naming,67,penguin,948,correct,NA,Jan 20 2023 11:28:10,Agnieszka,1
62b1f,62b1f_session1_listb_naming_trial068_tooth.wav,1,b,naming,68,tooth,1100,correct,NA,Jan 20 2023 11:28:22,Agnieszka,1
62b1f,62b1f_session1_listb_naming_trial069_volcano.wav,1,b,naming,69,volcano,1018,correct,NA,Jan 20 2023 11:28:44,Agnieszka,1
62b1f,62b1f_session1_listb_naming_trial070_scarf.wav,1,b,naming,70,scarf,1065,correct,NA,Jan 20 2023 11:28:53,Agnieszka,1
62b1f,62b1f_session1_listb_naming_trial071_fire.wav,1,b,naming,71,fire,1233,correct,NA,Jan 20 2023 11:29:04,Agnieszka,1
62b1f,62b1f_session1_listb_naming_trial072_shadow.wav,1,b,naming,72,shadow,1479,uncertain,bad quality,Jan 20 2023 11:29:20,Agnieszka,1
62b1f,62b1f_session1_listb_naming_trial073_calculator.wav,1,b,naming,73,calculator,958,correct,NA,Jan 20 2023 11:29:29,Agnieszka,1
62b1f,62b1f_session1_listb_naming_trial074_egg.wav,1,b,naming,74,egg,1223,correct,NA,Jan 20 2023 11:29:35,Agnieszka,1
62b1f,62b1f_session1_listb_naming_trial075_tank.wav,1,b,naming,75,tank,989,correct,NA,Jan 20 2023 11:29:45,Agnieszka,1
62b1f,62b1f_session1_listb_naming_trial076_diamond.wav,1,b,naming,76,diamond,986,correct,NA,Jan 20 2023 11:29:52,Agnieszka,1
62b1f,62b1f_session1_listb_naming_trial077_shirt.wav,1,b,naming,77,shirt,1349,correct,NA,Jan 20 2023 11:30:04,Agnieszka,1
62b1f,62b1f_session1_listb_naming_trial078_feather.wav,1,b,naming,78,feather,-1,wrong_word,NA,Jan 20 2023 11:30:11,Agnieszka,1
62b1f,62b1f_session1_listb_naming_trial079_caravan.wav,1,b,naming,79,caravan,1173,correct,NA,Jan 20 2023 11:30:22,Agnieszka,1
62b1f,62b1f_session1_listb_naming_trial080_back.wav,1,b,naming,80,back,-1,disfluency,NA,Jan 20 2023 11:30:32,Agnieszka,1
62b1f,62b1f_session1_listb_naming_trial081_nurse.wav,1,b,naming,81,nurse,1634,correct,NA,Jan 20 2023 11:30:39,Agnieszka,1
62b1f,62b1f_session1_listb_naming_trial082_crown.wav,1,b,naming,82,crown,999,correct,NA,Jan 20 2023 11:31:01,Agnieszka,1
62b1f,62b1f_session1_listb_naming_trial083_waiter.wav,1,b,naming,83,waiter,1182,correct,NA,Jan 20 2023 11:31:11,Agnieszka,1
62b1f,62b1f_session1_listb_naming_trial084_iron.wav,1,b,naming,84,iron,1381,correct,NA,Jan 20 2023 11:31:20,Agnieszka,1
62b1f,62b1f_session1_listb_naming_trial085_spoon.wav,1,b,naming,85,spoon,1034,uncertain,cant hear the initial 's' sound,Jan 20 2023 11:31:50,Agnieszka,1
62b1f,62b1f_session1_listb_naming_trial086_king.wav,1,b,naming,86,king,1075,correct,NA,Jan 20 2023 11:31:57,Agnieszka,1
62b1f,62b1f_session1_listb_naming_trial087_printer.wav,1,b,naming,87,printer,-1,wrong_word,NA,Jan 20 2023 11:32:05,Agnieszka,1
62b1f,62b1f_session1_listb_naming_trial088_skull.wav,1,b,naming,88,skull,952,correct,NA,Jan 20 2023 11:32:16,Agnieszka,1
62b1f,62b1f_session1_listb_naming_trial089_apron.wav,1,b,naming,89,apron,1018,correct,NA,Jan 20 2023 11:32:25,Agnieszka,1
62b1f,62b1f_session1_listb_naming_trial090_desert.wav,1,b,naming,90,desert,1286,correct,NA,Jan 20 2023 11:32:31,Agnieszka,1
62b1f,62b1f_session1_listb_naming_trial091_eye.wav,1,b,naming,91,eye,955,correct,NA,Jan 20 2023 11:32:46,Agnieszka,1
62b1f,62b1f_session1_listb_naming_trial092_burger.wav,1,b,naming,92,burger,1911,correct,NA,Jan 20 2023 11:32:54,Agnieszka,1
62b1f,62b1f_session1_listb_naming_trial093_lizard.wav,1,b,naming,93,lizard,1615,correct,NA,Jan 20 2023 11:33:02,Agnieszka,1
62b1f,62b1f_session1_listb_naming_trial094_man.wav,1,b,naming,94,man,1305,correct,NA,Jan 20 2023 11:33:09,Agnieszka,1
62b1f,62b1f_session1_listb_naming_trial095_wallet.wav,1,b,naming,95,wallet,-1,disfluency,NA,Jan 20 2023 11:33:16,Agnieszka,1
62b1f,62b1f_session1_listb_naming_trial096_bra.wav,1,b,naming,96,bra,936,correct,NA,Jan 20 2023 11:33:24,Agnieszka,1
62b1f,62b1f_session1_listb_naming_trial097_swimming.wav,1,b,naming,97,swimming,1043,correct,NA,Jan 20 2023 11:33:31,Agnieszka,1
62b1f,62b1f_session1_listb_naming_trial098_cannon.wav,1,b,naming,98,cannon,1024,correct,NA,Jan 20 2023 11:33:39,Agnieszka,1
62b1f,62b1f_session1_listb_naming_trial099_banana.wav,1,b,naming,99,banana,844,correct,NA,Jan 20 2023 11:33:46,Agnieszka,1
62b1f,62b1f_session1_listb_naming_trial100_maze.wav,1,b,naming,100,maze,983,correct,NA,Jan 20 2023 11:33:57,Agnieszka,1
62b1f,62b1f_session1_listb_naming_trial101_airport.wav,1,b,naming,101,airport,1169,correct,NA,Jan 20 2023 11:34:05,Agnieszka,1
62b1f,62b1f_session1_listb_naming_trial102_nose.wav,1,b,naming,102,nose,986,correct,NA,Jan 20 2023 11:34:15,Agnieszka,1
62b1f,62b1f_session1_listb_naming_trial103_elephant.wav,1,b,naming,103,elephant,964,correct,NA,Jan 20 2023 11:34:27,Agnieszka,1
62b1f,62b1f_session1_listb_naming_trial104_boomerang.wav,1,b,naming,104,boomerang,866,correct,NA,Jan 20 2023 11:34:35,Agnieszka,1
62b1f,62b1f_session1_listb_naming_trial105_umbrella.wav,1,b,naming,105,umbrella,1375,correct,NA,Jan 20 2023 11:34:45,Agnieszka,1
62b1f,62b1f_session1_listb_naming_trial106_cowboy.wav,1,b,naming,106,cowboy,1210,correct,NA,Jan 20 2023 11:34:53,Agnieszka,1
62b1f,62b1f_session1_listb_naming_trial107_duck.wav,1,b,naming,107,duck,1027,correct,NA,Jan 20 2023 11:35:04,Agnieszka,1
62b1f,62b1f_session1_listb_naming_trial108_balloon.wav,1,b,naming,108,balloon,926,correct,NA,Jan 20 2023 11:35:12,Agnieszka,1
62b1f,62b1f_session1_listb_naming_trial109_hair.wav,1,b,naming,109,hair,1312,correct,NA,Jan 20 2023 11:35:24,Agnieszka,1
62b1f,62b1f_session1_listb_naming_trial110_broom.wav,1,b,naming,110,broom,1346,correct,NA,Jan 20 2023 11:35:32,Agnieszka,1
62b1f,62b1f_session1_listb_naming_trial111_door.wav,1,b,naming,111,door,986,correct,NA,Jan 20 2023 11:35:40,Agnieszka,1
62b1f,62b1f_session1_listb_naming_trial112_torch.wav,1,b,naming,112,torch,-1,wrong_word,NA,Jan 20 2023 11:35:48,Agnieszka,1
62b1f,62b1f_session1_listb_naming_trial113_jar.wav,1,b,naming,113,jar,1027,correct,NA,Jan 20 2023 11:35:58,Agnieszka,1
62b1f,62b1f_session1_listb_naming_trial114_dolphin.wav,1,b,naming,114,dolphin,923,correct,NA,Jan 20 2023 11:36:08,Agnieszka,1
62b1f,62b1f_session1_listb_naming_trial115_sink.wav,1,b,naming,115,sink,1084,correct,NA,Jan 20 2023 11:36:15,Agnieszka,1
62b1f,62b1f_session1_listb_naming_trial116_mirror.wav,1,b,naming,116,mirror,876,correct,NA,Jan 20 2023 11:36:23,Agnieszka,1
62b1f,62b1f_session1_listb_naming_trial117_coconut.wav,1,b,naming,117,coconut,1122,correct,NA,Jan 20 2023 11:36:31,Agnieszka,1
62b1f,62b1f_session1_listb_naming_trial118_parrot.wav,1,b,naming,118,parrot,923,correct,NA,Jan 20 2023 11:36:40,Agnieszka,1
62b1f,62b1f_session1_listb_naming_trial119_handle.wav,1,b,naming,119,handle,1283,correct,NA,Jan 20 2023 11:36:48,Agnieszka,1
62b1f,62b1f_session1_listb_naming_trial120_cigarette.wav,1,b,naming,120,cigarette,1072,correct,NA,Jan 20 2023 11:37:01,Agnieszka,1
62b1f,62b1f_session1_listb_naming_trial121_moustache.wav,1,b,naming,121,moustache,926,correct,NA,Jan 20 2023 11:37:09,Agnieszka,1
62b1f,62b1f_session1_listb_naming_trial122_pool.wav,1,b,naming,122,pool,1286,correct,NA,Jan 20 2023 11:37:16,Agnieszka,1
62b1f,62b1f_session1_listb_naming_trial123_harp.wav,1,b,naming,123,harp,1087,correct,NA,Jan 20 2023 11:37:45,Agnieszka,1
62b1f,62b1f_session1_listb_naming_trial124_lab.wav,1,b,naming,124,lab,-1,no_resp,NA,Jan 20 2023 11:37:53,Agnieszka,1
62b1f,62b1f_session1_listb_naming_trial125_needle.wav,1,b,naming,125,needle,1286,correct,NA,Jan 20 2023 11:38:01,Agnieszka,1
62b1f,62b1f_session1_listb_naming_trial126_well.wav,1,b,naming,126,well,986,correct,NA,Jan 20 2023 11:38:07,Agnieszka,1
62b1f,62b1f_session1_listb_naming_trial127_television.wav,1,b,naming,127,television,-1,wrong_word,NA,Jan 20 2023 11:38:17,Agnieszka,1
62b1f,62b1f_session1_listb_naming_trial128_scorpion.wav,1,b,naming,128,scorpion,898,correct,NA,Jan 20 2023 11:38:23,Agnieszka,1
62b1f,62b1f_session1_listb_naming_trial129_bedroom.wav,1,b,naming,129,bedroom,1362,correct,NA,Jan 20 2023 11:38:29,Agnieszka,1
62b1f,62b1f_session1_listb_naming_trial130_giraffe.wav,1,b,naming,130,giraffe,920,correct,NA,Jan 20 2023 11:38:36,Agnieszka,1
62b1f,62b1f_session1_listb_naming_trial131_devil.wav,1,b,naming,131,devil,1037,correct,NA,Jan 20 2023 11:38:43,Agnieszka,1
62b1f,62b1f_session1_listb_naming_trial132_camera.wav,1,b,naming,132,camera,989,correct,NA,Jan 20 2023 11:38:51,Agnieszka,1
62b1f,62b1f_session1_listb_naming_trial133_face.wav,1,b,naming,133,face,1757,correct,NA,Jan 20 2023 11:38:58,Agnieszka,1
62b1f,62b1f_session1_listb_naming_trial134_asparagus.wav,1,b,naming,134,asparagus,1416,correct,NA,Jan 20 2023 11:39:04,Agnieszka,1
62b1f,62b1f_session1_listb_naming_trial135_keyboard.wav,1,b,naming,135,keyboard,929,correct,NA,Jan 20 2023 11:39:11,Agnieszka,1
62b1f,62b1f_session1_listb_naming_trial136_mask.wav,1,b,naming,136,mask,1406,correct,NA,Jan 20 2023 11:39:19,Agnieszka,1
62b1f,62b1f_session1_listb_naming_trial137_trumpet.wav,1,b,naming,137,trumpet,914,correct,NA,Jan 20 2023 11:39:27,Agnieszka,1
62b1f,62b1f_session1_listb_naming_trial138_guitar.wav,1,b,naming,138,guitar,961,correct,NA,Jan 20 2023 11:39:46,Agnieszka,1
62b1f,62b1f_session1_listb_naming_trial139_honey.wav,1,b,naming,139,honey,961,correct,NA,Jan 20 2023 11:39:55,Agnieszka,1
62b1f,62b1f_session1_listb_naming_trial140_button.wav,1,b,naming,140,button,1321,correct,NA,Jan 20 2023 11:40:02,Agnieszka,1
62b1f,62b1f_session1_listb_naming_trial141_cactus.wav,1,b,naming,141,cactus,942,correct,NA,Jan 20 2023 11:40:13,Agnieszka,1
62b1f,62b1f_session1_listb_naming_trial142_glass.wav,1,b,naming,142,glass,1270,correct,NA,Jan 20 2023 11:40:22,Agnieszka,1
62b1f,62b1f_session1_listb_naming_trial143_spider.wav,1,b,naming,143,spider,1157,correct,NA,Jan 20 2023 11:40:29,Agnieszka,1
62b1f,62b1f_session1_listb_naming_trial144_nun.wav,1,b,naming,144,nun,-1,disfluency,NA,Jan 20 2023 11:40:36,Agnieszka,1
62b1f,62b1f_session1_listb_naming_trial145_scarecrow.wav,1,b,naming,145,scarecrow,1034,correct,NA,Jan 20 2023 11:40:44,Agnieszka,1
62b1f,62b1f_session1_listb_naming_trial146_sock.wav,1,b,naming,146,sock,-1,wrong_word,NA,Jan 20 2023 11:40:55,Agnieszka,1
62b1f,62b1f_session1_listb_naming_trial147_ankle.wav,1,b,naming,147,ankle,2047,correct,NA,Jan 20 2023 11:41:01,Agnieszka,1
62b1f,62b1f_session1_listb_naming_trial148_snail.wav,1,b,naming,148,snail,911,correct,NA,Jan 20 2023 11:41:10,Agnieszka,1
62b1f,62b1f_session1_listb_naming_trial149_watch.wav,1,b,naming,149,watch,895,correct,NA,Jan 20 2023 11:41:19,Agnieszka,1
62b1f,62b1f_session1_listb_naming_trial150_skeleton.wav,1,b,naming,150,skeleton,873,correct,NA,Jan 20 2023 11:41:26,Agnieszka,1
