Participant_ID,File_Name,Session,List,Type_Trial,Trial_Nbr,Target,RT,Response_Trial,Comment,Date_Correction,Assessor_Name,Processed
6151c,6151c_session1_listb_naming_trial001_bin.wav,1,b,naming,1,bin,1103,correct,NA,Jan 31 2023 12:31:29,Agnieszka,1
6151c,6151c_session1_listb_naming_trial002_roof.wav,1,b,naming,2,roof,839,correct,NA,Jan 31 2023 12:31:33,Agnieszka,1
6151c,6151c_session1_listb_naming_trial003_back.wav,1,b,naming,3,back,680,correct,NA,Jan 31 2023 12:31:35,Agnieszka,1
6151c,6151c_session1_listb_naming_trial004_shirt.wav,1,b,naming,4,shirt,1084,correct,NA,Jan 31 2023 12:31:47,Agnieszka,1
6151c,6151c_session1_listb_naming_trial005_ring.wav,1,b,naming,5,ring,788,correct,NA,Jan 31 2023 12:31:55,Agnieszka,1
6151c,6151c_session1_listb_naming_trial006_television.wav,1,b,naming,6,television,-1,wrong_word,NA,Jan 31 2023 12:32:05,Agnieszka,1
6151c,6151c_session1_listb_naming_trial007_shark.wav,1,b,naming,7,shark,657,correct,NA,Jan 31 2023 12:32:12,Agnieszka,1
6151c,6151c_session1_listb_naming_trial008_airport.wav,1,b,naming,8,airport,1078,correct,NA,Jan 31 2023 12:32:19,Agnieszka,1
6151c,6151c_session1_listb_naming_trial009_scorpion.wav,1,b,naming,9,scorpion,836,correct,NA,Jan 31 2023 12:32:26,Agnieszka,1
6151c,6151c_session1_listb_naming_trial010_chain.wav,1,b,naming,10,chain,705,correct,NA,Jan 31 2023 12:32:40,Agnieszka,1
6151c,6151c_session1_listb_naming_trial011_chair.wav,1,b,naming,11,chair,813,correct,NA,Jan 31 2023 12:32:49,Agnieszka,1
6151c,6151c_session1_listb_naming_trial012_dog.wav,1,b,naming,12,dog,813,correct,NA,Jan 31 2023 12:33:05,Agnieszka,1
6151c,6151c_session1_listb_naming_trial013_bed.wav,1,b,naming,13,bed,657,correct,NA,Jan 31 2023 12:33:13,Agnieszka,1
6151c,6151c_session1_listb_naming_trial014_lion.wav,1,b,naming,14,lion,696,correct,NA,Jan 31 2023 12:33:21,Agnieszka,1
6151c,6151c_session1_listb_naming_trial015_volcano.wav,1,b,naming,15,volcano,702,correct,NA,Jan 31 2023 12:33:39,Agnieszka,1
6151c,6151c_session1_listb_naming_trial016_sheep.wav,1,b,naming,16,sheep,657,correct,NA,Jan 31 2023 12:33:48,Agnieszka,1
6151c,6151c_session1_listb_naming_trial017_bible.wav,1,b,naming,17,bible,839,correct,NA,Jan 31 2023 12:33:55,Agnieszka,1
6151c,6151c_session1_listb_naming_trial018_greenhouse.wav,1,b,naming,18,greenhouse,1352,correct,NA,Jan 31 2023 12:34:08,Agnieszka,1
6151c,6151c_session1_listb_naming_trial019_wallet.wav,1,b,naming,19,wallet,817,correct,NA,Jan 31 2023 12:34:18,Agnieszka,1
6151c,6151c_session1_listb_naming_trial020_butcher.wav,1,b,naming,20,butcher,791,correct,NA,Jan 31 2023 12:34:35,Agnieszka,1
6151c,6151c_session1_listb_naming_trial021_thermometer.wav,1,b,naming,21,thermometer,-1,wrong_word,NA,Jan 31 2023 12:34:44,Agnieszka,1
6151c,6151c_session1_listb_naming_trial022_lemon.wav,1,b,naming,22,lemon,909,correct,NA,Jan 31 2023 12:34:57,Agnieszka,1
6151c,6151c_session1_listb_naming_trial023_microphone.wav,1,b,naming,23,microphone,762,correct,NA,Jan 31 2023 12:35:05,Agnieszka,1
6151c,6151c_session1_listb_naming_trial024_cowboy.wav,1,b,naming,24,cowboy,813,correct,NA,Jan 31 2023 12:35:14,Agnieszka,1
6151c,6151c_session1_listb_naming_trial025_sink.wav,1,b,naming,25,sink,848,correct,NA,Jan 31 2023 12:35:21,Agnieszka,1
6151c,6151c_session1_listb_naming_trial026_diamond.wav,1,b,naming,26,diamond,676,correct,NA,Jan 31 2023 12:35:34,Agnieszka,1
6151c,6151c_session1_listb_naming_trial027_pool.wav,1,b,naming,27,pool,-1,wrong_word,NA,Jan 31 2023 12:35:41,Agnieszka,1
6151c,6151c_session1_listb_naming_trial028_parachute.wav,1,b,naming,28,parachute,1887,correct,NA,Jan 31 2023 12:35:50,Agnieszka,1
6151c,6151c_session1_listb_naming_trial029_leaf.wav,1,b,naming,29,leaf,922,correct,NA,Jan 31 2023 12:36:07,Agnieszka,1
6151c,6151c_session1_listb_naming_trial030_lab.wav,1,b,naming,30,lab,-1,wrong_word,NA,Jan 31 2023 12:36:17,Agnieszka,1
6151c,6151c_session1_listb_naming_trial031_finger.wav,1,b,naming,31,finger,1065,correct,NA,Jan 31 2023 12:36:30,Agnieszka,1
6151c,6151c_session1_listb_naming_trial032_eye.wav,1,b,naming,32,eye,737,correct,NA,Jan 31 2023 12:36:43,Agnieszka,1
6151c,6151c_session1_listb_naming_trial033_earring.wav,1,b,naming,33,earring,934,correct,NA,Jan 31 2023 12:36:50,Agnieszka,1
6151c,6151c_session1_listb_naming_trial034_nose.wav,1,b,naming,34,nose,737,correct,NA,Jan 31 2023 12:36:58,Agnieszka,1
6151c,6151c_session1_listb_naming_trial035_baby.wav,1,b,naming,35,baby,820,correct,NA,Jan 31 2023 12:37:05,Agnieszka,1
6151c,6151c_session1_listb_naming_trial036_scarecrow.wav,1,b,naming,36,scarecrow,915,correct,NA,Jan 31 2023 12:37:13,Agnieszka,1
6151c,6151c_session1_listb_naming_trial037_house.wav,1,b,naming,37,house,702,correct,NA,Jan 31 2023 12:37:21,Agnieszka,1
6151c,6151c_session1_listb_naming_trial038_pumpkin.wav,1,b,naming,38,pumpkin,874,correct,NA,Jan 31 2023 12:37:31,Agnieszka,1
6151c,6151c_session1_listb_naming_trial039_foot.wav,1,b,naming,39,foot,743,correct,NA,Jan 31 2023 12:37:39,Agnieszka,1
6151c,6151c_session1_listb_naming_trial040_broom.wav,1,b,naming,40,broom,1122,correct,NA,Jan 31 2023 12:37:47,Agnieszka,1
6151c,6151c_session1_listb_naming_trial041_honey.wav,1,b,naming,41,honey,896,correct,NA,Jan 31 2023 12:38:19,Agnieszka,1
6151c,6151c_session1_listb_naming_trial042_bra.wav,1,b,naming,42,bra,689,correct,NA,Jan 31 2023 12:38:27,Agnieszka,1
6151c,6151c_session1_listb_naming_trial043_devil.wav,1,b,naming,43,devil,727,correct,NA,Jan 31 2023 12:38:36,Agnieszka,1
6151c,6151c_session1_listb_naming_trial044_jar.wav,1,b,naming,44,jar,718,correct,NA,Jan 31 2023 12:38:44,Agnieszka,1
6151c,6151c_session1_listb_naming_trial045_ambulance.wav,1,b,naming,45,ambulance,775,correct,NA,Jan 31 2023 12:38:54,Agnieszka,1
6151c,6151c_session1_listb_naming_trial046_watch.wav,1,b,naming,46,watch,689,correct,NA,Jan 31 2023 12:39:02,Agnieszka,1
6151c,6151c_session1_listb_naming_trial047_cannon.wav,1,b,naming,47,cannon,903,correct,NA,Jan 31 2023 12:39:10,Agnieszka,1
6151c,6151c_session1_listb_naming_trial048_coconut.wav,1,b,naming,48,coconut,966,correct,NA,Jan 31 2023 12:39:26,Agnieszka,1
6151c,6151c_session1_listb_naming_trial049_fist.wav,1,b,naming,49,fist,804,correct,NA,Jan 31 2023 12:39:38,Agnieszka,1
6151c,6151c_session1_listb_naming_trial050_brain.wav,1,b,naming,50,brain,686,correct,NA,Jan 31 2023 12:40:06,Agnieszka,1
6151c,6151c_session1_listb_naming_trial051_handle.wav,1,b,naming,51,handle,976,correct,NA,Jan 31 2023 12:40:14,Agnieszka,1
6151c,6151c_session1_listb_naming_trial052_lizard.wav,1,b,naming,52,lizard,1046,correct,NA,Jan 31 2023 12:40:21,Agnieszka,1
6151c,6151c_session1_listb_naming_trial053_iron.wav,1,b,naming,53,iron,947,correct,NA,Jan 31 2023 12:40:29,Agnieszka,1
6151c,6151c_session1_listb_naming_trial054_pilot.wav,1,b,naming,54,pilot,1361,correct,NA,Jan 31 2023 12:40:40,Agnieszka,1
6151c,6151c_session1_listb_naming_trial055_harp.wav,1,b,naming,55,harp,-1,wrong_word,NA,Jan 31 2023 12:40:47,Agnieszka,1
6151c,6151c_session1_listb_naming_trial056_belt.wav,1,b,naming,56,belt,778,correct,NA,Jan 31 2023 12:40:59,Agnieszka,1
6151c,6151c_session1_listb_naming_trial057_asparagus.wav,1,b,naming,57,asparagus,756,correct,NA,Jan 31 2023 12:41:14,Agnieszka,1
6151c,6151c_session1_listb_naming_trial058_camera.wav,1,b,naming,58,camera,852,correct,NA,Jan 31 2023 12:41:22,Agnieszka,1
6151c,6151c_session1_listb_naming_trial059_skeleton.wav,1,b,naming,59,skeleton,794,correct,NA,Jan 31 2023 12:41:34,Agnieszka,1
6151c,6151c_session1_listb_naming_trial060_elephant.wav,1,b,naming,60,elephant,887,correct,NA,Jan 31 2023 12:41:41,Agnieszka,1
6151c,6151c_session1_listb_naming_trial061_tooth.wav,1,b,naming,61,tooth,766,correct,NA,Jan 31 2023 12:41:50,Agnieszka,1
6151c,6151c_session1_listb_naming_trial062_well.wav,1,b,naming,62,well,966,correct,NA,Jan 31 2023 12:42:01,Agnieszka,1
6151c,6151c_session1_listb_naming_trial063_dinosaur.wav,1,b,naming,63,dinosaur,912,correct,NA,Jan 31 2023 12:42:10,Agnieszka,1
6151c,6151c_session1_listb_naming_trial064_cactus.wav,1,b,naming,64,cactus,775,correct,NA,Jan 31 2023 12:42:19,Agnieszka,1
6151c,6151c_session1_listb_naming_trial065_bedroom.wav,1,b,naming,65,bedroom,947,correct,NA,Jan 31 2023 12:42:32,Agnieszka,1
6151c,6151c_session1_listb_naming_trial066_guitar.wav,1,b,naming,66,guitar,1017,correct,NA,Jan 31 2023 12:42:42,Agnieszka,1
6151c,6151c_session1_listb_naming_trial067_frog.wav,1,b,naming,67,frog,772,correct,NA,Jan 31 2023 12:42:49,Agnieszka,1
6151c,6151c_session1_listb_naming_trial068_heart.wav,1,b,naming,68,heart,801,correct,NA,Jan 31 2023 12:42:57,Agnieszka,1
6151c,6151c_session1_listb_naming_trial069_glasses.wav,1,b,naming,69,glasses,692,correct,NA,Jan 31 2023 12:43:05,Agnieszka,1
6151c,6151c_session1_listb_naming_trial070_dolphin.wav,1,b,naming,70,dolphin,766,correct,NA,Jan 31 2023 12:43:15,Agnieszka,1
6151c,6151c_session1_listb_naming_trial071_screwdriver.wav,1,b,naming,71,screwdriver,702,correct,NA,Jan 31 2023 12:43:24,Agnieszka,1
6151c,6151c_session1_listb_naming_trial072_button.wav,1,b,naming,72,button,2775,uncertain,correct but cut off,Jan 31 2023 12:43:36,Agnieszka,1
6151c,6151c_session1_listb_naming_trial073_apron.wav,1,b,naming,73,apron,-1,wrong_word,NA,Jan 31 2023 12:43:42,Agnieszka,1
6151c,6151c_session1_listb_naming_trial074_skateboard.wav,1,b,naming,74,skateboard,731,correct,NA,Jan 31 2023 12:43:50,Agnieszka,1
6151c,6151c_session1_listb_naming_trial075_choir.wav,1,b,naming,75,choir,1024,correct,NA,Jan 31 2023 12:44:00,Agnieszka,1
6151c,6151c_session1_listb_naming_trial076_cage.wav,1,b,naming,76,cage,2396,correct,skype ringing in the background,Jan 31 2023 12:44:31,Agnieszka,1
6151c,6151c_session1_listb_naming_trial077_strawberry.wav,1,b,naming,77,strawberry,713,correct,NA,Jan 31 2023 12:45:01,Agnieszka,1
6151c,6151c_session1_listb_naming_trial078_penguin.wav,1,b,naming,78,penguin,731,correct,NA,Jan 31 2023 12:45:09,Agnieszka,1
6151c,6151c_session1_listb_naming_trial079_balloon.wav,1,b,naming,79,balloon,683,correct,NA,Jan 31 2023 12:45:18,Agnieszka,1
6151c,6151c_session1_listb_naming_trial080_coffin.wav,1,b,naming,80,coffin,944,correct,NA,Jan 31 2023 12:45:27,Agnieszka,1
6151c,6151c_session1_listb_naming_trial081_farm.wav,1,b,naming,81,farm,1129,correct,NA,Jan 31 2023 12:45:36,Agnieszka,1
6151c,6151c_session1_listb_naming_trial082_knee.wav,1,b,naming,82,knee,1227,correct,NA,Jan 31 2023 12:45:49,Agnieszka,1
6151c,6151c_session1_listb_naming_trial083_mask.wav,1,b,naming,83,mask,1008,correct,NA,Jan 31 2023 12:45:58,Agnieszka,1
6151c,6151c_session1_listb_naming_trial084_condom.wav,1,b,naming,84,condom,1020,correct,NA,Jan 31 2023 12:46:07,Agnieszka,1
6151c,6151c_session1_listb_naming_trial085_spoon.wav,1,b,naming,85,spoon,625,correct,NA,Jan 31 2023 12:46:16,Agnieszka,1
6151c,6151c_session1_listb_naming_trial086_car.wav,1,b,naming,86,car,759,correct,NA,Jan 31 2023 12:46:23,Agnieszka,1
6151c,6151c_session1_listb_naming_trial087_swimming.wav,1,b,naming,87,swimming,829,correct,NA,Jan 31 2023 12:46:33,Agnieszka,1
6151c,6151c_session1_listb_naming_trial088_spider.wav,1,b,naming,88,spider,874,correct,NA,Jan 31 2023 12:46:41,Agnieszka,1
6151c,6151c_session1_listb_naming_trial089_maze.wav,1,b,naming,89,maze,696,correct,NA,Jan 31 2023 12:46:48,Agnieszka,1
6151c,6151c_session1_listb_naming_trial090_beard.wav,1,b,naming,90,beard,680,correct,NA,Jan 31 2023 12:46:55,Agnieszka,1
6151c,6151c_session1_listb_naming_trial091_nun.wav,1,b,naming,91,nun,2097,correct,NA,Jan 31 2023 12:47:05,Agnieszka,1
6151c,6151c_session1_listb_naming_trial092_umbrella.wav,1,b,naming,92,umbrella,906,correct,NA,Jan 31 2023 12:47:17,Agnieszka,1
6151c,6151c_session1_listb_naming_trial093_hand.wav,1,b,naming,93,hand,724,correct,NA,Jan 31 2023 12:47:31,Agnieszka,1
6151c,6151c_session1_listb_naming_trial094_trumpet.wav,1,b,naming,94,trumpet,1348,correct,NA,Jan 31 2023 12:47:39,Agnieszka,1
6151c,6151c_session1_listb_naming_trial095_feather.wav,1,b,naming,95,feather,-1,wrong_word,NA,Jan 31 2023 12:47:46,Agnieszka,1
6151c,6151c_session1_listb_naming_trial096_calculator.wav,1,b,naming,96,calculator,871,correct,NA,Jan 31 2023 12:47:53,Agnieszka,1
6151c,6151c_session1_listb_naming_trial097_parrot.wav,1,b,naming,97,parrot,1116,correct,NA,Jan 31 2023 12:48:01,Agnieszka,1
6151c,6151c_session1_listb_naming_trial098_man.wav,1,b,naming,98,man,938,correct,NA,Jan 31 2023 12:48:09,Agnieszka,1
6151c,6151c_session1_listb_naming_trial099_girl.wav,1,b,naming,99,girl,757,correct,NA,Jan 31 2023 12:48:19,Agnieszka,1
6151c,6151c_session1_listb_naming_trial100_crown.wav,1,b,naming,100,crown,839,correct,NA,Jan 31 2023 12:48:31,Agnieszka,1
6151c,6151c_session1_listb_naming_trial101_egg.wav,1,b,naming,101,egg,938,correct,NA,Jan 31 2023 12:48:39,Agnieszka,1
6151c,6151c_session1_listb_naming_trial102_keyboard.wav,1,b,naming,102,keyboard,969,correct,NA,Jan 31 2023 12:48:47,Agnieszka,1
6151c,6151c_session1_listb_naming_trial103_needle.wav,1,b,naming,103,needle,1011,correct,NA,Jan 31 2023 12:48:55,Agnieszka,1
6151c,6151c_session1_listb_naming_trial104_stapler.wav,1,b,naming,104,stapler,1202,correct,NA,Jan 31 2023 12:49:03,Agnieszka,1
6151c,6151c_session1_listb_naming_trial105_fruit.wav,1,b,naming,105,fruit,826,correct,NA,Jan 31 2023 12:49:14,Agnieszka,1
6151c,6151c_session1_listb_naming_trial106_skull.wav,1,b,naming,106,skull,1071,correct,NA,Jan 31 2023 12:49:22,Agnieszka,1
6151c,6151c_session1_listb_naming_trial107_telephone.wav,1,b,naming,107,telephone,-1,wrong_word,NA,Jan 31 2023 12:49:30,Agnieszka,1
6151c,6151c_session1_listb_naming_trial108_coffee.wav,1,b,naming,108,coffee,1906,correct,NA,Jan 31 2023 12:49:39,Agnieszka,1
6151c,6151c_session1_listb_naming_trial109_cloud.wav,1,b,naming,109,cloud,1176,correct,NA,Jan 31 2023 12:49:53,Agnieszka,1
6151c,6151c_session1_listb_naming_trial110_face.wav,1,b,naming,110,face,715,correct,NA,Jan 31 2023 12:50:01,Agnieszka,1
6151c,6151c_session1_listb_naming_trial111_printer.wav,1,b,naming,111,printer,1262,correct,NA,Jan 31 2023 12:50:11,Agnieszka,1
6151c,6151c_session1_listb_naming_trial112_fire.wav,1,b,naming,112,fire,743,correct,NA,Jan 31 2023 12:50:19,Agnieszka,1
6151c,6151c_session1_listb_naming_trial113_vein.wav,1,b,naming,113,vein,973,correct,NA,Jan 31 2023 12:50:26,Agnieszka,1
6151c,6151c_session1_listb_naming_trial114_cone.wav,1,b,naming,114,cone,810,correct,NA,Jan 31 2023 12:50:33,Agnieszka,1
6151c,6151c_session1_listb_naming_trial115_nurse.wav,1,b,naming,115,nurse,-1,wrong_word,NA,Jan 31 2023 12:50:39,Agnieszka,1
6151c,6151c_session1_listb_naming_trial116_caravan.wav,1,b,naming,116,caravan,822,correct,NA,Jan 31 2023 12:50:48,Agnieszka,1
6151c,6151c_session1_listb_naming_trial117_door.wav,1,b,naming,117,door,740,correct,NA,Jan 31 2023 12:51:08,Agnieszka,1
6151c,6151c_session1_listb_naming_trial118_hedgehog.wav,1,b,naming,118,hedgehog,708,correct,NA,Jan 31 2023 12:51:19,Agnieszka,1
6151c,6151c_session1_listb_naming_trial119_witch.wav,1,b,naming,119,witch,887,correct,NA,Jan 31 2023 12:51:43,Agnieszka,1
6151c,6151c_session1_listb_naming_trial120_broccoli.wav,1,b,naming,120,broccoli,813,correct,NA,Jan 31 2023 12:51:56,Agnieszka,1
6151c,6151c_session1_listb_naming_trial121_duck.wav,1,b,naming,121,duck,963,correct,NA,Jan 31 2023 12:52:05,Agnieszka,1
6151c,6151c_session1_listb_naming_trial122_calendar.wav,1,b,naming,122,calendar,874,correct,NA,Jan 31 2023 12:52:17,Agnieszka,1
6151c,6151c_session1_listb_naming_trial123_boomerang.wav,1,b,naming,123,boomerang,877,correct,NA,Jan 31 2023 12:52:38,Agnieszka,1
6151c,6151c_session1_listb_naming_trial124_desert.wav,1,b,naming,124,desert,960,correct,NA,Jan 31 2023 12:52:48,Agnieszka,1
6151c,6151c_session1_listb_naming_trial125_giraffe.wav,1,b,naming,125,giraffe,731,correct,NA,Jan 31 2023 12:53:00,Agnieszka,1
6151c,6151c_session1_listb_naming_trial126_football.wav,1,b,naming,126,football,676,correct,NA,Jan 31 2023 12:53:09,Agnieszka,1
6151c,6151c_session1_listb_naming_trial127_hair.wav,1,b,naming,127,hair,823,correct,NA,Jan 31 2023 12:53:22,Agnieszka,1
6151c,6151c_session1_listb_naming_trial128_waiter.wav,1,b,naming,128,waiter,931,correct,NA,Jan 31 2023 12:53:29,Agnieszka,1
6151c,6151c_session1_listb_naming_trial129_mirror.wav,1,b,naming,129,mirror,829,correct,NA,Jan 31 2023 12:53:38,Agnieszka,1
6151c,6151c_session1_listb_naming_trial130_cigarette.wav,1,b,naming,130,cigarette,724,correct,NA,Jan 31 2023 12:53:45,Agnieszka,1
6151c,6151c_session1_listb_naming_trial131_dragon.wav,1,b,naming,131,dragon,718,correct,NA,Jan 31 2023 12:53:56,Agnieszka,1
6151c,6151c_session1_listb_naming_trial132_bat.wav,1,b,naming,132,bat,702,correct,NA,Jan 31 2023 12:54:04,Agnieszka,1
6151c,6151c_session1_listb_naming_trial133_torch.wav,1,b,naming,133,torch,1027,correct,NA,Jan 31 2023 12:54:12,Agnieszka,1
6151c,6151c_session1_listb_naming_trial134_pizza.wav,1,b,naming,134,pizza,713,correct,NA,Jan 31 2023 12:54:22,Agnieszka,1
6151c,6151c_session1_listb_naming_trial135_burger.wav,1,b,naming,135,burger,679,correct,NA,Jan 31 2023 12:54:31,Agnieszka,1
6151c,6151c_session1_listb_naming_trial136_fan.wav,1,b,naming,136,fan,826,correct,NA,Jan 31 2023 12:54:51,Agnieszka,1
6151c,6151c_session1_listb_naming_trial137_moustache.wav,1,b,naming,137,moustache,775,correct,NA,Jan 31 2023 12:54:59,Agnieszka,1
6151c,6151c_session1_listb_naming_trial138_sock.wav,1,b,naming,138,sock,727,correct,NA,Jan 31 2023 12:55:10,Agnieszka,1
6151c,6151c_session1_listb_naming_trial139_gun.wav,1,b,naming,139,gun,664,correct,NA,Jan 31 2023 12:55:19,Agnieszka,1
6151c,6151c_session1_listb_naming_trial140_banana.wav,1,b,naming,140,banana,635,correct,NA,Jan 31 2023 12:55:26,Agnieszka,1
6151c,6151c_session1_listb_naming_trial141_king.wav,1,b,naming,141,king,775,correct,NA,Jan 31 2023 12:55:40,Agnieszka,1
6151c,6151c_session1_listb_naming_trial142_road.wav,1,b,naming,142,road,810,correct,NA,Jan 31 2023 12:55:47,Agnieszka,1
6151c,6151c_session1_listb_naming_trial143_glass.wav,1,b,naming,143,glass,842,correct,NA,Jan 31 2023 12:55:57,Agnieszka,1
6151c,6151c_session1_listb_naming_trial144_snail.wav,1,b,naming,144,snail,832,correct,NA,Jan 31 2023 12:56:08,Agnieszka,1
6151c,6151c_session1_listb_naming_trial145_dentist.wav,1,b,naming,145,dentist,2282,correct,NA,Jan 31 2023 12:56:15,Agnieszka,1
6151c,6151c_session1_listb_naming_trial146_pirate.wav,1,b,naming,146,pirate,829,correct,NA,Jan 31 2023 12:56:22,Agnieszka,1
6151c,6151c_session1_listb_naming_trial147_tank.wav,1,b,naming,147,tank,743,correct,NA,Jan 31 2023 12:56:29,Agnieszka,1
6151c,6151c_session1_listb_naming_trial148_shadow.wav,1,b,naming,148,shadow,925,correct,NA,Jan 31 2023 12:56:36,Agnieszka,1
6151c,6151c_session1_listb_naming_trial149_ankle.wav,1,b,naming,149,ankle,918,correct,NA,Jan 31 2023 12:56:44,Agnieszka,1
6151c,6151c_session1_listb_naming_trial150_scarf.wav,1,b,naming,150,scarf,922,correct,NA,Jan 31 2023 12:56:51,Agnieszka,1
