Participant_ID,File_Name,Session,List,Type_Trial,Trial_Nbr,Target,RT,Response_Trial,Comment,Date_Correction,Assessor_Name,Processed
613dd,613dd_session1_listb_naming_trial001_brain.wav,1,b,naming,1,brain,1600,correct,NA,Jan 26 2023 12:03:08,Agnieszka,1
613dd,613dd_session1_listb_naming_trial002_stapler.wav,1,b,naming,2,stapler,1336,correct,NA,Jan 26 2023 12:03:19,Agnieszka,1
613dd,613dd_session1_listb_naming_trial003_baby.wav,1,b,naming,3,baby,1454,correct,NA,Jan 26 2023 12:03:27,Agnieszka,1
613dd,613dd_session1_listb_naming_trial004_microphone.wav,1,b,naming,4,microphone,954,correct,NA,Jan 26 2023 12:03:37,Agnieszka,1
613dd,613dd_session1_listb_naming_trial005_vein.wav,1,b,naming,5,vein,-1,wrong_word,NA,Jan 26 2023 12:03:43,Agnieszka,1
613dd,613dd_session1_listb_naming_trial006_harp.wav,1,b,naming,6,harp,1090,correct,NA,Jan 26 2023 12:03:53,Agnieszka,1
613dd,613dd_session1_listb_naming_trial007_handle.wav,1,b,naming,7,handle,1498,correct,NA,Jan 26 2023 12:04:05,Agnieszka,1
613dd,613dd_session1_listb_naming_trial008_nose.wav,1,b,naming,8,nose,1352,correct,NA,Jan 26 2023 12:04:16,Agnieszka,1
613dd,613dd_session1_listb_naming_trial009_belt.wav,1,b,naming,9,belt,1364,correct,NA,Jan 26 2023 12:04:23,Agnieszka,1
613dd,613dd_session1_listb_naming_trial010_desert.wav,1,b,naming,10,desert,1434,correct,NA,Jan 26 2023 12:04:39,Agnieszka,1
613dd,613dd_session1_listb_naming_trial011_iron.wav,1,b,naming,11,iron,1549,correct,NA,Jan 26 2023 12:04:45,Agnieszka,1
613dd,613dd_session1_listb_naming_trial012_cannon.wav,1,b,naming,12,cannon,1657,correct,NA,Jan 26 2023 12:04:52,Agnieszka,1
613dd,613dd_session1_listb_naming_trial013_telephone.wav,1,b,naming,13,telephone,1492,correct,NA,Jan 26 2023 12:04:58,Agnieszka,1
613dd,613dd_session1_listb_naming_trial014_bra.wav,1,b,naming,14,bra,1339,correct,NA,Jan 26 2023 12:05:06,Agnieszka,1
613dd,613dd_session1_listb_naming_trial015_snail.wav,1,b,naming,15,snail,1237,correct,NA,Jan 26 2023 12:05:13,Agnieszka,1
613dd,613dd_session1_listb_naming_trial016_printer.wav,1,b,naming,16,printer,1530,correct,NA,Jan 26 2023 12:05:19,Agnieszka,1
613dd,613dd_session1_listb_naming_trial017_cigarette.wav,1,b,naming,17,cigarette,2157,correct,NA,Jan 26 2023 12:05:28,Agnieszka,1
613dd,613dd_session1_listb_naming_trial018_gun.wav,1,b,naming,18,gun,1422,correct,NA,Jan 26 2023 12:05:35,Agnieszka,1
613dd,613dd_session1_listb_naming_trial019_feather.wav,1,b,naming,19,feather,1199,correct,NA,Jan 26 2023 12:05:41,Agnieszka,1
613dd,613dd_session1_listb_naming_trial020_broom.wav,1,b,naming,20,broom,1215,correct,NA,Jan 26 2023 12:05:49,Agnieszka,1
613dd,613dd_session1_listb_naming_trial021_greenhouse.wav,1,b,naming,21,greenhouse,1441,correct,NA,Jan 26 2023 12:05:57,Agnieszka,1
613dd,613dd_session1_listb_naming_trial022_roof.wav,1,b,naming,22,roof,1406,correct,NA,Jan 26 2023 12:06:05,Agnieszka,1
613dd,613dd_session1_listb_naming_trial023_skeleton.wav,1,b,naming,23,skeleton,1202,correct,NA,Jan 26 2023 12:06:13,Agnieszka,1
613dd,613dd_session1_listb_naming_trial024_mirror.wav,1,b,naming,24,mirror,1227,correct,NA,Jan 26 2023 12:06:20,Agnieszka,1
613dd,613dd_session1_listb_naming_trial025_earring.wav,1,b,naming,25,earring,1501,correct,NA,Jan 26 2023 12:06:27,Agnieszka,1
613dd,613dd_session1_listb_naming_trial026_scorpion.wav,1,b,naming,26,scorpion,1116,correct,NA,Jan 26 2023 12:06:34,Agnieszka,1
613dd,613dd_session1_listb_naming_trial027_sheep.wav,1,b,naming,27,sheep,1036,correct,NA,Jan 26 2023 12:06:40,Agnieszka,1
613dd,613dd_session1_listb_naming_trial028_penguin.wav,1,b,naming,28,penguin,1390,correct,NA,Jan 26 2023 12:06:49,Agnieszka,1
613dd,613dd_session1_listb_naming_trial029_pool.wav,1,b,naming,29,pool,1116,correct,NA,Jan 26 2023 12:06:57,Agnieszka,1
613dd,613dd_session1_listb_naming_trial030_watch.wav,1,b,naming,30,watch,1106,correct,NA,Jan 26 2023 12:07:05,Agnieszka,1
613dd,613dd_session1_listb_naming_trial031_cage.wav,1,b,naming,31,cage,1651,correct,NA,Jan 26 2023 12:07:12,Agnieszka,1
613dd,613dd_session1_listb_naming_trial032_calculator.wav,1,b,naming,32,calculator,1145,correct,NA,Jan 26 2023 12:07:21,Agnieszka,1
613dd,613dd_session1_listb_naming_trial033_butcher.wav,1,b,naming,33,butcher,1278,correct,NA,Jan 26 2023 12:07:58,Agnieszka,1
613dd,613dd_session1_listb_naming_trial034_knee.wav,1,b,naming,34,knee,1763,correct,NA,Jan 26 2023 12:08:05,Agnieszka,1
613dd,613dd_session1_listb_naming_trial035_lab.wav,1,b,naming,35,lab,1517,correct,NA,Jan 26 2023 12:08:12,Agnieszka,1
613dd,613dd_session1_listb_naming_trial036_burger.wav,1,b,naming,36,burger,1282,correct,NA,Jan 26 2023 12:08:18,Agnieszka,1
613dd,613dd_session1_listb_naming_trial037_sink.wav,1,b,naming,37,sink,1358,correct,NA,Jan 26 2023 12:08:24,Agnieszka,1
613dd,613dd_session1_listb_naming_trial038_leaf.wav,1,b,naming,38,leaf,1874,correct,NA,Jan 26 2023 12:08:32,Agnieszka,1
613dd,613dd_session1_listb_naming_trial039_cone.wav,1,b,naming,39,cone,1205,correct,NA,Jan 26 2023 12:08:39,Agnieszka,1
613dd,613dd_session1_listb_naming_trial040_fruit.wav,1,b,naming,40,fruit,1011,correct,NA,Jan 26 2023 12:08:55,Agnieszka,1
613dd,613dd_session1_listb_naming_trial041_needle.wav,1,b,naming,41,needle,1575,correct,NA,Jan 26 2023 12:09:05,Agnieszka,1
613dd,613dd_session1_listb_naming_trial042_screwdriver.wav,1,b,naming,42,screwdriver,1129,correct,NA,Jan 26 2023 12:09:13,Agnieszka,1
613dd,613dd_session1_listb_naming_trial043_coconut.wav,1,b,naming,43,coconut,1399,correct,NA,Jan 26 2023 12:09:19,Agnieszka,1
613dd,613dd_session1_listb_naming_trial044_volcano.wav,1,b,naming,44,volcano,1903,correct,NA,Jan 26 2023 12:09:26,Agnieszka,1
613dd,613dd_session1_listb_naming_trial045_fan.wav,1,b,naming,45,fan,1065,correct,NA,Jan 26 2023 12:09:33,Agnieszka,1
613dd,613dd_session1_listb_naming_trial046_girl.wav,1,b,naming,46,girl,1129,correct,NA,Jan 26 2023 12:09:41,Agnieszka,1
613dd,613dd_session1_listb_naming_trial047_broccoli.wav,1,b,naming,47,broccoli,925,correct,NA,Jan 26 2023 12:09:49,Agnieszka,1
613dd,613dd_session1_listb_naming_trial048_ring.wav,1,b,naming,48,ring,845,correct,NA,Jan 26 2023 12:09:57,Agnieszka,1
613dd,613dd_session1_listb_naming_trial049_beard.wav,1,b,naming,49,beard,1629,correct,NA,Jan 26 2023 12:10:06,Agnieszka,1
613dd,613dd_session1_listb_naming_trial050_ankle.wav,1,b,naming,50,ankle,1782,correct,NA,Jan 26 2023 12:10:40,Agnieszka,1
613dd,613dd_session1_listb_naming_trial051_bin.wav,1,b,naming,51,bin,1132,correct,NA,Jan 26 2023 12:10:46,Agnieszka,1
613dd,613dd_session1_listb_naming_trial052_condom.wav,1,b,naming,52,condom,1419,correct,NA,Jan 26 2023 12:10:52,Agnieszka,1
613dd,613dd_session1_listb_naming_trial053_cowboy.wav,1,b,naming,53,cowboy,1610,correct,NA,Jan 26 2023 12:11:00,Agnieszka,1
613dd,613dd_session1_listb_naming_trial054_cactus.wav,1,b,naming,54,cactus,2084,correct,NA,Jan 26 2023 12:11:08,Agnieszka,1
613dd,613dd_session1_listb_naming_trial055_airport.wav,1,b,naming,55,airport,1689,correct,NA,Jan 26 2023 12:11:20,Agnieszka,1
613dd,613dd_session1_listb_naming_trial056_television.wav,1,b,naming,56,television,-1,wrong_word,NA,Jan 26 2023 12:11:26,Agnieszka,1
613dd,613dd_session1_listb_naming_trial057_dentist.wav,1,b,naming,57,dentist,1361,correct,NA,Jan 26 2023 12:11:33,Agnieszka,1
613dd,613dd_session1_listb_naming_trial058_foot.wav,1,b,naming,58,foot,1333,correct,NA,Jan 26 2023 12:11:40,Agnieszka,1
613dd,613dd_session1_listb_naming_trial059_fire.wav,1,b,naming,59,fire,1419,correct,NA,Jan 26 2023 12:11:46,Agnieszka,1
613dd,613dd_session1_listb_naming_trial060_hair.wav,1,b,naming,60,hair,1071,correct,NA,Jan 26 2023 12:11:53,Agnieszka,1
613dd,613dd_session1_listb_naming_trial061_glasses.wav,1,b,naming,61,glasses,1304,correct,NA,Jan 26 2023 12:12:03,Agnieszka,1
613dd,613dd_session1_listb_naming_trial062_bedroom.wav,1,b,naming,62,bedroom,-1,uncertain,"says "bed...room", I think initially intended just "bed" (also sounds very annoyed)",Jan 26 2023 12:13:02,Agnieszka,1
613dd,613dd_session1_listb_naming_trial063_scarf.wav,1,b,naming,63,scarf,1266,correct,NA,Jan 26 2023 12:13:10,Agnieszka,1
613dd,613dd_session1_listb_naming_trial064_elephant.wav,1,b,naming,64,elephant,947,correct,NA,Jan 26 2023 12:13:20,Agnieszka,1
613dd,613dd_session1_listb_naming_trial065_shadow.wav,1,b,naming,65,shadow,1154,correct,NA,Jan 26 2023 12:13:28,Agnieszka,1
613dd,613dd_session1_listb_naming_trial066_keyboard.wav,1,b,naming,66,keyboard,1444,correct,NA,Jan 26 2023 12:13:34,Agnieszka,1
613dd,613dd_session1_listb_naming_trial067_witch.wav,1,b,naming,67,witch,1024,correct,NA,Jan 26 2023 12:13:41,Agnieszka,1
613dd,613dd_session1_listb_naming_trial068_lizard.wav,1,b,naming,68,lizard,1113,correct,NA,Jan 26 2023 12:13:50,Agnieszka,1
613dd,613dd_session1_listb_naming_trial069_chain.wav,1,b,naming,69,chain,1243,correct,NA,Jan 26 2023 12:13:58,Agnieszka,1
613dd,613dd_session1_listb_naming_trial070_shirt.wav,1,b,naming,70,shirt,1183,correct,NA,Jan 26 2023 12:14:05,Agnieszka,1
613dd,613dd_session1_listb_naming_trial071_banana.wav,1,b,naming,71,banana,1148,correct,NA,Jan 26 2023 12:14:12,Agnieszka,1
613dd,613dd_session1_listb_naming_trial072_coffin.wav,1,b,naming,72,coffin,1922,correct,NA,Jan 26 2023 12:14:19,Agnieszka,1
613dd,613dd_session1_listb_naming_trial073_face.wav,1,b,naming,73,face,1415,correct,NA,Jan 26 2023 12:14:27,Agnieszka,1
613dd,613dd_session1_listb_naming_trial074_king.wav,1,b,naming,74,king,1390,correct,NA,Jan 26 2023 12:14:34,Agnieszka,1
613dd,613dd_session1_listb_naming_trial075_calendar.wav,1,b,naming,75,calendar,1307,correct,NA,Jan 26 2023 12:14:41,Agnieszka,1
613dd,613dd_session1_listb_naming_trial076_moustache.wav,1,b,naming,76,moustache,1419,correct,NA,Jan 26 2023 12:14:48,Agnieszka,1
613dd,613dd_session1_listb_naming_trial077_glass.wav,1,b,naming,77,glass,2122,correct,NA,Jan 26 2023 12:14:57,Agnieszka,1
613dd,613dd_session1_listb_naming_trial078_waiter.wav,1,b,naming,78,waiter,1505,correct,NA,Jan 26 2023 12:15:03,Agnieszka,1
613dd,613dd_session1_listb_naming_trial079_car.wav,1,b,naming,79,car,1084,correct,NA,Jan 26 2023 12:15:11,Agnieszka,1
613dd,613dd_session1_listb_naming_trial080_football.wav,1,b,naming,80,football,1062,correct,NA,Jan 26 2023 12:15:20,Agnieszka,1
613dd,613dd_session1_listb_naming_trial081_guitar.wav,1,b,naming,81,guitar,1014,correct,NA,Jan 26 2023 12:15:28,Agnieszka,1
613dd,613dd_session1_listb_naming_trial082_skateboard.wav,1,b,naming,82,skateboard,1017,correct,NA,Jan 26 2023 12:15:36,Agnieszka,1
613dd,613dd_session1_listb_naming_trial083_scarecrow.wav,1,b,naming,83,scarecrow,1606,correct,NA,Jan 26 2023 12:15:45,Agnieszka,1
613dd,613dd_session1_listb_naming_trial084_hand.wav,1,b,naming,84,hand,1167,correct,NA,Jan 26 2023 12:15:52,Agnieszka,1
613dd,613dd_session1_listb_naming_trial085_well.wav,1,b,naming,85,well,1428,correct,NA,Jan 26 2023 12:15:59,Agnieszka,1
613dd,613dd_session1_listb_naming_trial086_back.wav,1,b,naming,86,back,1215,correct,NA,Jan 26 2023 12:16:08,Agnieszka,1
613dd,613dd_session1_listb_naming_trial087_swimming.wav,1,b,naming,87,swimming,1482,correct,NA,Jan 26 2023 12:16:16,Agnieszka,1
613dd,613dd_session1_listb_naming_trial088_jar.wav,1,b,naming,88,jar,1129,correct,NA,Jan 26 2023 12:16:24,Agnieszka,1
613dd,613dd_session1_listb_naming_trial089_coffee.wav,1,b,naming,89,coffee,1154,correct,NA,Jan 26 2023 12:16:34,Agnieszka,1
613dd,613dd_session1_listb_naming_trial090_umbrella.wav,1,b,naming,90,umbrella,947,correct,NA,Jan 26 2023 12:16:42,Agnieszka,1
613dd,613dd_session1_listb_naming_trial091_heart.wav,1,b,naming,91,heart,1008,correct,NA,Jan 26 2023 12:16:49,Agnieszka,1
613dd,613dd_session1_listb_naming_trial092_lion.wav,1,b,naming,92,lion,1291,correct,NA,Jan 26 2023 12:16:57,Agnieszka,1
613dd,613dd_session1_listb_naming_trial093_bat.wav,1,b,naming,93,bat,1613,correct,NA,Jan 26 2023 12:17:03,Agnieszka,1
613dd,613dd_session1_listb_naming_trial094_parrot.wav,1,b,naming,94,parrot,1097,correct,NA,Jan 26 2023 12:17:12,Agnieszka,1
613dd,613dd_session1_listb_naming_trial095_strawberry.wav,1,b,naming,95,strawberry,944,correct,NA,Jan 26 2023 12:17:19,Agnieszka,1
613dd,613dd_session1_listb_naming_trial096_thermometer.wav,1,b,naming,96,thermometer,1791,correct,NA,Jan 26 2023 12:17:26,Agnieszka,1
613dd,613dd_session1_listb_naming_trial097_hedgehog.wav,1,b,naming,97,hedgehog,1571,correct,NA,Jan 26 2023 12:17:32,Agnieszka,1
613dd,613dd_session1_listb_naming_trial098_trumpet.wav,1,b,naming,98,trumpet,1141,correct,NA,Jan 26 2023 12:17:39,Agnieszka,1
613dd,613dd_session1_listb_naming_trial099_cloud.wav,1,b,naming,99,cloud,1001,correct,NA,Jan 26 2023 12:17:50,Agnieszka,1
613dd,613dd_session1_listb_naming_trial100_pilot.wav,1,b,naming,100,pilot,1880,correct,NA,Jan 26 2023 12:17:56,Agnieszka,1
613dd,613dd_session1_listb_naming_trial101_nun.wav,1,b,naming,101,nun,1119,correct,NA,Jan 26 2023 12:18:03,Agnieszka,1
613dd,613dd_session1_listb_naming_trial102_devil.wav,1,b,naming,102,devil,1068,correct,NA,Jan 26 2023 12:18:14,Agnieszka,1
613dd,613dd_session1_listb_naming_trial103_dinosaur.wav,1,b,naming,103,dinosaur,1269,correct,NA,Jan 26 2023 12:18:27,Agnieszka,1
613dd,613dd_session1_listb_naming_trial104_dolphin.wav,1,b,naming,104,dolphin,1406,correct,NA,Jan 26 2023 12:18:56,Agnieszka,1
613dd,613dd_session1_listb_naming_trial105_bed.wav,1,b,naming,105,bed,1511,correct,NA,Jan 26 2023 12:19:05,Agnieszka,1
613dd,613dd_session1_listb_naming_trial106_honey.wav,1,b,naming,106,honey,1352,correct,NA,Jan 26 2023 12:19:14,Agnieszka,1
613dd,613dd_session1_listb_naming_trial107_duck.wav,1,b,naming,107,duck,1272,correct,NA,Jan 26 2023 12:19:58,Agnieszka,1
613dd,613dd_session1_listb_naming_trial108_wallet.wav,1,b,naming,108,wallet,1339,correct,NA,Jan 26 2023 12:20:05,Agnieszka,1
613dd,613dd_session1_listb_naming_trial109_shark.wav,1,b,naming,109,shark,1406,correct,NA,Jan 26 2023 12:20:11,Agnieszka,1
613dd,613dd_session1_listb_naming_trial110_dog.wav,1,b,naming,110,dog,966,correct,NA,Jan 26 2023 12:20:20,Agnieszka,1
613dd,613dd_session1_listb_naming_trial111_choir.wav,1,b,naming,111,choir,1262,correct,NA,Jan 26 2023 12:20:27,Agnieszka,1
613dd,613dd_session1_listb_naming_trial112_man.wav,1,b,naming,112,man,1664,correct,NA,Jan 26 2023 12:20:35,Agnieszka,1
613dd,613dd_session1_listb_naming_trial113_asparagus.wav,1,b,naming,113,asparagus,1288,correct,NA,Jan 26 2023 12:20:41,Agnieszka,1
613dd,613dd_session1_listb_naming_trial114_sock.wav,1,b,naming,114,sock,1205,correct,NA,Jan 26 2023 12:20:49,Agnieszka,1
613dd,613dd_session1_listb_naming_trial115_maze.wav,1,b,naming,115,maze,1247,correct,NA,Jan 26 2023 12:20:58,Agnieszka,1
613dd,613dd_session1_listb_naming_trial116_diamond.wav,1,b,naming,116,diamond,1562,correct,NA,Jan 26 2023 12:21:05,Agnieszka,1
613dd,613dd_session1_listb_naming_trial117_spider.wav,1,b,naming,117,spider,989,correct,NA,Jan 26 2023 12:21:12,Agnieszka,1
613dd,613dd_session1_listb_naming_trial118_ambulance.wav,1,b,naming,118,ambulance,1017,correct,NA,Jan 26 2023 12:21:20,Agnieszka,1
613dd,613dd_session1_listb_naming_trial119_pirate.wav,1,b,naming,119,pirate,1635,correct,NA,Jan 26 2023 12:21:30,Agnieszka,1
613dd,613dd_session1_listb_naming_trial120_tank.wav,1,b,naming,120,tank,1323,correct,NA,Jan 26 2023 12:21:39,Agnieszka,1
613dd,613dd_session1_listb_naming_trial121_frog.wav,1,b,naming,121,frog,1030,correct,NA,Jan 26 2023 12:22:49,Agnieszka,1
613dd,613dd_session1_listb_naming_trial122_parachute.wav,1,b,naming,122,parachute,-1,wrong_word,NA,Jan 26 2023 12:22:57,Agnieszka,1
613dd,613dd_session1_listb_naming_trial123_chair.wav,1,b,naming,123,chair,1454,correct,NA,Jan 26 2023 12:23:08,Agnieszka,1
613dd,613dd_session1_listb_naming_trial124_bible.wav,1,b,naming,124,bible,1103,correct,NA,Jan 26 2023 12:23:15,Agnieszka,1
613dd,613dd_session1_listb_naming_trial125_giraffe.wav,1,b,naming,125,giraffe,1247,correct,NA,Jan 26 2023 12:23:23,Agnieszka,1
613dd,613dd_session1_listb_naming_trial126_dragon.wav,1,b,naming,126,dragon,1415,correct,NA,Jan 26 2023 12:23:31,Agnieszka,1
613dd,613dd_session1_listb_naming_trial127_eye.wav,1,b,naming,127,eye,1196,correct,NA,Jan 26 2023 12:23:39,Agnieszka,1
613dd,613dd_session1_listb_naming_trial128_tooth.wav,1,b,naming,128,tooth,918,correct,NA,Jan 26 2023 12:23:47,Agnieszka,1
613dd,613dd_session1_listb_naming_trial129_apron.wav,1,b,naming,129,apron,1176,correct,NA,Jan 26 2023 12:23:54,Agnieszka,1
613dd,613dd_session1_listb_naming_trial130_caravan.wav,1,b,naming,130,caravan,1145,correct,NA,Jan 26 2023 12:24:01,Agnieszka,1
613dd,613dd_session1_listb_naming_trial131_skull.wav,1,b,naming,131,skull,957,correct,NA,Jan 26 2023 12:24:09,Agnieszka,1
613dd,613dd_session1_listb_naming_trial132_finger.wav,1,b,naming,132,finger,1199,correct,NA,Jan 26 2023 12:24:16,Agnieszka,1
613dd,613dd_session1_listb_naming_trial133_boomerang.wav,1,b,naming,133,boomerang,1409,correct,NA,Jan 26 2023 12:24:23,Agnieszka,1
613dd,613dd_session1_listb_naming_trial134_lemon.wav,1,b,naming,134,lemon,1135,correct,NA,Jan 26 2023 12:24:31,Agnieszka,1
613dd,613dd_session1_listb_naming_trial135_nurse.wav,1,b,naming,135,nurse,1638,correct,NA,Jan 26 2023 12:24:38,Agnieszka,1
613dd,613dd_session1_listb_naming_trial136_mask.wav,1,b,naming,136,mask,1240,correct,NA,Jan 26 2023 12:24:46,Agnieszka,1
613dd,613dd_session1_listb_naming_trial137_pizza.wav,1,b,naming,137,pizza,842,correct,NA,Jan 26 2023 12:24:55,Agnieszka,1
613dd,613dd_session1_listb_naming_trial138_torch.wav,1,b,naming,138,torch,1291,correct,NA,Jan 26 2023 12:25:02,Agnieszka,1
613dd,613dd_session1_listb_naming_trial139_crown.wav,1,b,naming,139,crown,1342,correct,NA,Jan 26 2023 12:25:10,Agnieszka,1
613dd,613dd_session1_listb_naming_trial140_pumpkin.wav,1,b,naming,140,pumpkin,1103,correct,NA,Jan 26 2023 12:25:17,Agnieszka,1
613dd,613dd_session1_listb_naming_trial141_spoon.wav,1,b,naming,141,spoon,1014,correct,NA,Jan 26 2023 12:25:24,Agnieszka,1
613dd,613dd_session1_listb_naming_trial142_fist.wav,1,b,naming,142,fist,1001,correct,NA,Jan 26 2023 12:25:31,Agnieszka,1
613dd,613dd_session1_listb_naming_trial143_balloon.wav,1,b,naming,143,balloon,950,correct,NA,Jan 26 2023 12:25:38,Agnieszka,1
613dd,613dd_session1_listb_naming_trial144_button.wav,1,b,naming,144,button,1189,correct,NA,Jan 26 2023 12:25:45,Agnieszka,1
613dd,613dd_session1_listb_naming_trial145_house.wav,1,b,naming,145,house,1562,correct,NA,Jan 26 2023 12:25:54,Agnieszka,1
613dd,613dd_session1_listb_naming_trial146_farm.wav,1,b,naming,146,farm,2046,correct,NA,Jan 26 2023 12:26:00,Agnieszka,1
613dd,613dd_session1_listb_naming_trial147_door.wav,1,b,naming,147,door,1062,correct,NA,Jan 26 2023 12:26:11,Agnieszka,1
613dd,613dd_session1_listb_naming_trial148_camera.wav,1,b,naming,148,camera,1345,correct,NA,Jan 26 2023 12:26:21,Agnieszka,1
613dd,613dd_session1_listb_naming_trial149_road.wav,1,b,naming,149,road,1329,correct,NA,Jan 26 2023 12:26:29,Agnieszka,1
613dd,613dd_session1_listb_naming_trial150_egg.wav,1,b,naming,150,egg,1476,correct,NA,Jan 26 2023 12:26:36,Agnieszka,1
