Participant_ID,File_Name,Session,List,Type_Trial,Trial_Nbr,Target,RT,Response_Trial,Comment,Date_Correction,Assessor_Name,Processed
612c8,612c8_session1_listb_naming_trial001_condom.wav,1,b,naming,1,condom,957,correct,NA,Jan 25 2023 13:20:07,Agnieszka,1
612c8,612c8_session1_listb_naming_trial002_caravan.wav,1,b,naming,2,caravan,871,correct,NA,Jan 25 2023 13:20:16,Agnieszka,1
612c8,612c8_session1_listb_naming_trial003_umbrella.wav,1,b,naming,3,umbrella,871,correct,NA,Jan 25 2023 13:20:22,Agnieszka,1
612c8,612c8_session1_listb_naming_trial004_ambulance.wav,1,b,naming,4,ambulance,1148,correct,NA,Jan 25 2023 13:20:29,Agnieszka,1
612c8,612c8_session1_listb_naming_trial005_car.wav,1,b,naming,5,car,766,correct,NA,Jan 25 2023 13:20:36,Agnieszka,1
612c8,612c8_session1_listb_naming_trial006_cannon.wav,1,b,naming,6,cannon,797,correct,NA,Jan 25 2023 13:20:44,Agnieszka,1
612c8,612c8_session1_listb_naming_trial007_scarecrow.wav,1,b,naming,7,scarecrow,797,correct,NA,Jan 25 2023 13:20:56,Agnieszka,1
612c8,612c8_session1_listb_naming_trial008_vein.wav,1,b,naming,8,vein,976,correct,NA,Jan 25 2023 13:21:04,Agnieszka,1
612c8,612c8_session1_listb_naming_trial009_lemon.wav,1,b,naming,9,lemon,753,correct,NA,Jan 25 2023 13:21:17,Agnieszka,1
612c8,612c8_session1_listb_naming_trial010_maze.wav,1,b,naming,10,maze,966,correct,NA,Jan 25 2023 13:21:24,Agnieszka,1
612c8,612c8_session1_listb_naming_trial011_girl.wav,1,b,naming,11,girl,896,correct,NA,Jan 25 2023 13:21:32,Agnieszka,1
612c8,612c8_session1_listb_naming_trial012_dentist.wav,1,b,naming,12,dentist,1004,correct,NA,Jan 25 2023 13:21:42,Agnieszka,1
612c8,612c8_session1_listb_naming_trial013_mirror.wav,1,b,naming,13,mirror,801,correct,NA,Jan 25 2023 13:21:52,Agnieszka,1
612c8,612c8_session1_listb_naming_trial014_bible.wav,1,b,naming,14,bible,909,correct,NA,Jan 25 2023 13:22:13,Agnieszka,1
612c8,612c8_session1_listb_naming_trial015_cloud.wav,1,b,naming,15,cloud,836,correct,NA,Jan 25 2023 13:22:22,Agnieszka,1
612c8,612c8_session1_listb_naming_trial016_butcher.wav,1,b,naming,16,butcher,1212,correct,NA,Jan 25 2023 13:22:28,Agnieszka,1
612c8,612c8_session1_listb_naming_trial017_honey.wav,1,b,naming,17,honey,778,correct,NA,Jan 25 2023 13:22:37,Agnieszka,1
612c8,612c8_session1_listb_naming_trial018_iron.wav,1,b,naming,18,iron,871,correct,NA,Jan 25 2023 13:22:46,Agnieszka,1
612c8,612c8_session1_listb_naming_trial019_pirate.wav,1,b,naming,19,pirate,896,correct,NA,Jan 25 2023 13:22:53,Agnieszka,1
612c8,612c8_session1_listb_naming_trial020_dog.wav,1,b,naming,20,dog,839,correct,NA,Jan 25 2023 13:23:02,Agnieszka,1
612c8,612c8_session1_listb_naming_trial021_skateboard.wav,1,b,naming,21,skateboard,753,correct,NA,Jan 25 2023 13:23:10,Agnieszka,1
612c8,612c8_session1_listb_naming_trial022_trumpet.wav,1,b,naming,22,trumpet,848,correct,NA,Jan 25 2023 13:23:17,Agnieszka,1
612c8,612c8_session1_listb_naming_trial023_feather.wav,1,b,naming,23,feather,782,correct,NA,Jan 25 2023 13:23:25,Agnieszka,1
612c8,612c8_session1_listb_naming_trial024_bedroom.wav,1,b,naming,24,bedroom,1262,correct,NA,Jan 25 2023 13:23:35,Agnieszka,1
612c8,612c8_session1_listb_naming_trial025_cactus.wav,1,b,naming,25,cactus,842,correct,NA,Jan 25 2023 13:23:42,Agnieszka,1
612c8,612c8_session1_listb_naming_trial026_fruit.wav,1,b,naming,26,fruit,1065,correct,NA,Jan 25 2023 13:23:51,Agnieszka,1
612c8,612c8_session1_listb_naming_trial027_beard.wav,1,b,naming,27,beard,944,correct,NA,Jan 25 2023 13:23:58,Agnieszka,1
612c8,612c8_session1_listb_naming_trial028_coffee.wav,1,b,naming,28,coffee,985,correct,NA,Jan 25 2023 13:24:05,Agnieszka,1
612c8,612c8_session1_listb_naming_trial029_cowboy.wav,1,b,naming,29,cowboy,1243,correct,NA,Jan 25 2023 13:24:12,Agnieszka,1
612c8,612c8_session1_listb_naming_trial030_cage.wav,1,b,naming,30,cage,1084,correct,NA,Jan 25 2023 13:24:20,Agnieszka,1
612c8,612c8_session1_listb_naming_trial031_telephone.wav,1,b,naming,31,telephone,785,correct,NA,Jan 25 2023 13:24:29,Agnieszka,1
612c8,612c8_session1_listb_naming_trial032_gun.wav,1,b,naming,32,gun,874,correct,NA,Jan 25 2023 13:24:39,Agnieszka,1
612c8,612c8_session1_listb_naming_trial033_lion.wav,1,b,naming,33,lion,797,correct,NA,Jan 25 2023 13:24:47,Agnieszka,1
612c8,612c8_session1_listb_naming_trial034_glass.wav,1,b,naming,34,glass,909,correct,NA,Jan 25 2023 13:24:56,Agnieszka,1
612c8,612c8_session1_listb_naming_trial035_bat.wav,1,b,naming,35,bat,874,correct,NA,Jan 25 2023 13:25:04,Agnieszka,1
612c8,612c8_session1_listb_naming_trial036_chain.wav,1,b,naming,36,chain,868,correct,NA,Jan 25 2023 13:25:13,Agnieszka,1
612c8,612c8_session1_listb_naming_trial037_stapler.wav,1,b,naming,37,stapler,711,correct,NA,Jan 25 2023 13:25:24,Agnieszka,1
612c8,612c8_session1_listb_naming_trial038_skeleton.wav,1,b,naming,38,skeleton,740,correct,NA,Jan 25 2023 13:25:31,Agnieszka,1
612c8,612c8_session1_listb_naming_trial039_mask.wav,1,b,naming,39,mask,836,correct,NA,Jan 25 2023 13:25:41,Agnieszka,1
612c8,612c8_session1_listb_naming_trial040_scarf.wav,1,b,naming,40,scarf,782,correct,NA,Jan 25 2023 13:25:48,Agnieszka,1
612c8,612c8_session1_listb_naming_trial041_shirt.wav,1,b,naming,41,shirt,788,correct,NA,Jan 25 2023 13:25:58,Agnieszka,1
612c8,612c8_session1_listb_naming_trial042_jar.wav,1,b,naming,42,jar,845,correct,NA,Jan 25 2023 13:26:05,Agnieszka,1
612c8,612c8_session1_listb_naming_trial043_sock.wav,1,b,naming,43,sock,823,correct,NA,Jan 25 2023 13:26:13,Agnieszka,1
612c8,612c8_session1_listb_naming_trial044_crown.wav,1,b,naming,44,crown,810,correct,NA,Jan 25 2023 13:26:20,Agnieszka,1
612c8,612c8_session1_listb_naming_trial045_waiter.wav,1,b,naming,45,waiter,880,correct,NA,Jan 25 2023 13:26:27,Agnieszka,1
612c8,612c8_session1_listb_naming_trial046_knee.wav,1,b,naming,46,knee,899,correct,NA,Jan 25 2023 13:26:36,Agnieszka,1
612c8,612c8_session1_listb_naming_trial047_dolphin.wav,1,b,naming,47,dolphin,826,correct,NA,Jan 25 2023 13:26:45,Agnieszka,1
612c8,612c8_session1_listb_naming_trial048_finger.wav,1,b,naming,48,finger,794,correct,NA,Jan 25 2023 13:29:51,Agnieszka,1
612c8,612c8_session1_listb_naming_trial049_bed.wav,1,b,naming,49,bed,934,correct,NA,Jan 25 2023 13:29:59,Agnieszka,1
612c8,612c8_session1_listb_naming_trial050_handle.wav,1,b,naming,50,handle,1094,correct,NA,Jan 25 2023 13:30:06,Agnieszka,1
612c8,612c8_session1_listb_naming_trial051_egg.wav,1,b,naming,51,egg,982,correct,NA,Jan 25 2023 13:30:15,Agnieszka,1
612c8,612c8_session1_listb_naming_trial052_road.wav,1,b,naming,52,road,842,correct,NA,Jan 25 2023 13:30:23,Agnieszka,1
612c8,612c8_session1_listb_naming_trial053_parrot.wav,1,b,naming,53,parrot,775,correct,NA,Jan 25 2023 13:30:30,Agnieszka,1
612c8,612c8_session1_listb_naming_trial054_heart.wav,1,b,naming,54,heart,740,correct,NA,Jan 25 2023 13:30:37,Agnieszka,1
612c8,612c8_session1_listb_naming_trial055_man.wav,1,b,naming,55,man,925,correct,NA,Jan 25 2023 13:30:45,Agnieszka,1
612c8,612c8_session1_listb_naming_trial056_door.wav,1,b,naming,56,door,909,correct,NA,Jan 25 2023 13:30:52,Agnieszka,1
612c8,612c8_session1_listb_naming_trial057_moustache.wav,1,b,naming,57,moustache,906,correct,NA,Jan 25 2023 13:30:59,Agnieszka,1
612c8,612c8_session1_listb_naming_trial058_king.wav,1,b,naming,58,king,909,correct,NA,Jan 25 2023 13:31:06,Agnieszka,1
612c8,612c8_session1_listb_naming_trial059_broccoli.wav,1,b,naming,59,broccoli,797,correct,NA,Jan 25 2023 13:31:13,Agnieszka,1
612c8,612c8_session1_listb_naming_trial060_back.wav,1,b,naming,60,back,992,correct,NA,Jan 25 2023 13:31:20,Agnieszka,1
612c8,612c8_session1_listb_naming_trial061_duck.wav,1,b,naming,61,duck,801,correct,NA,Jan 25 2023 13:31:29,Agnieszka,1
612c8,612c8_session1_listb_naming_trial062_desert.wav,1,b,naming,62,desert,1078,correct,NA,Jan 25 2023 13:31:39,Agnieszka,1
612c8,612c8_session1_listb_naming_trial063_elephant.wav,1,b,naming,63,elephant,868,correct,NA,Jan 25 2023 13:31:47,Agnieszka,1
612c8,612c8_session1_listb_naming_trial064_ankle.wav,1,b,naming,64,ankle,1024,correct,NA,Jan 25 2023 13:31:54,Agnieszka,1
612c8,612c8_session1_listb_naming_trial065_swimming.wav,1,b,naming,65,swimming,-1,wrong_word,NA,Jan 25 2023 13:32:01,Agnieszka,1
612c8,612c8_session1_listb_naming_trial066_foot.wav,1,b,naming,66,foot,918,correct,NA,Jan 25 2023 13:32:09,Agnieszka,1
612c8,612c8_session1_listb_naming_trial067_keyboard.wav,1,b,naming,67,keyboard,944,correct,NA,Jan 25 2023 13:32:15,Agnieszka,1
612c8,612c8_session1_listb_naming_trial068_skull.wav,1,b,naming,68,skull,785,correct,NA,Jan 25 2023 13:32:22,Agnieszka,1
612c8,612c8_session1_listb_naming_trial069_cigarette.wav,1,b,naming,69,cigarette,740,correct,NA,Jan 25 2023 13:32:30,Agnieszka,1
612c8,612c8_session1_listb_naming_trial070_calculator.wav,1,b,naming,70,calculator,839,correct,NA,Jan 25 2023 13:32:40,Agnieszka,1
612c8,612c8_session1_listb_naming_trial071_chair.wav,1,b,naming,71,chair,740,correct,NA,Jan 25 2023 13:32:49,Agnieszka,1
612c8,612c8_session1_listb_naming_trial072_volcano.wav,1,b,naming,72,volcano,1004,correct,NA,Jan 25 2023 13:32:56,Agnieszka,1
612c8,612c8_session1_listb_naming_trial073_diamond.wav,1,b,naming,73,diamond,944,correct,NA,Jan 25 2023 13:33:04,Agnieszka,1
612c8,612c8_session1_listb_naming_trial074_lizard.wav,1,b,naming,74,lizard,823,correct,NA,Jan 25 2023 13:33:14,Agnieszka,1
612c8,612c8_session1_listb_naming_trial075_printer.wav,1,b,naming,75,printer,1087,correct,NA,Jan 25 2023 13:33:21,Agnieszka,1
612c8,612c8_session1_listb_naming_trial076_bra.wav,1,b,naming,76,bra,874,correct,NA,Jan 25 2023 13:33:28,Agnieszka,1
612c8,612c8_session1_listb_naming_trial077_glasses.wav,1,b,naming,77,glasses,887,correct,NA,Jan 25 2023 13:33:35,Agnieszka,1
612c8,612c8_session1_listb_naming_trial078_house.wav,1,b,naming,78,house,864,correct,NA,Jan 25 2023 13:33:42,Agnieszka,1
612c8,612c8_session1_listb_naming_trial079_spoon.wav,1,b,naming,79,spoon,683,correct,NA,Jan 25 2023 13:33:49,Agnieszka,1
612c8,612c8_session1_listb_naming_trial080_fan.wav,1,b,naming,80,fan,807,correct,NA,Jan 25 2023 13:33:57,Agnieszka,1
612c8,612c8_session1_listb_naming_trial081_eye.wav,1,b,naming,81,eye,807,correct,NA,Jan 25 2023 13:34:05,Agnieszka,1
612c8,612c8_session1_listb_naming_trial082_shadow.wav,1,b,naming,82,shadow,909,correct,NA,Jan 25 2023 13:34:14,Agnieszka,1
612c8,612c8_session1_listb_naming_trial083_scorpion.wav,1,b,naming,83,scorpion,762,correct,NA,Jan 25 2023 13:34:21,Agnieszka,1
612c8,612c8_session1_listb_naming_trial084_pilot.wav,1,b,naming,84,pilot,1151,correct,NA,Jan 25 2023 13:34:28,Agnieszka,1
612c8,612c8_session1_listb_naming_trial085_strawberry.wav,1,b,naming,85,strawberry,721,correct,NA,Jan 25 2023 13:35:01,Agnieszka,1
612c8,612c8_session1_listb_naming_trial086_parachute.wav,1,b,naming,86,parachute,864,correct,NA,Jan 25 2023 13:35:09,Agnieszka,1
612c8,612c8_session1_listb_naming_trial087_belt.wav,1,b,naming,87,belt,982,correct,NA,Jan 25 2023 13:35:16,Agnieszka,1
612c8,612c8_session1_listb_naming_trial088_wallet.wav,1,b,naming,88,wallet,852,correct,NA,Jan 25 2023 13:35:24,Agnieszka,1
612c8,612c8_session1_listb_naming_trial089_airport.wav,1,b,naming,89,airport,1170,correct,NA,Jan 25 2023 13:35:30,Agnieszka,1
612c8,612c8_session1_listb_naming_trial090_boomerang.wav,1,b,naming,90,boomerang,1591,correct,NA,Jan 25 2023 13:35:50,Agnieszka,1
612c8,612c8_session1_listb_naming_trial091_spider.wav,1,b,naming,91,spider,1014,correct,NA,Jan 25 2023 13:35:57,Agnieszka,1
612c8,612c8_session1_listb_naming_trial092_asparagus.wav,1,b,naming,92,asparagus,1530,correct,NA,Jan 25 2023 13:36:03,Agnieszka,1
612c8,612c8_session1_listb_naming_trial093_coconut.wav,1,b,naming,93,coconut,797,correct,NA,Jan 25 2023 13:36:11,Agnieszka,1
612c8,612c8_session1_listb_naming_trial094_brain.wav,1,b,naming,94,brain,813,correct,NA,Jan 25 2023 13:36:19,Agnieszka,1
612c8,612c8_session1_listb_naming_trial095_roof.wav,1,b,naming,95,roof,976,correct,NA,Jan 25 2023 13:36:27,Agnieszka,1
612c8,612c8_session1_listb_naming_trial096_hand.wav,1,b,naming,96,hand,718,correct,NA,Jan 25 2023 13:36:38,Agnieszka,1
612c8,612c8_session1_listb_naming_trial097_dragon.wav,1,b,naming,97,dragon,922,correct,NA,Jan 25 2023 13:36:45,Agnieszka,1
612c8,612c8_session1_listb_naming_trial098_harp.wav,1,b,naming,98,harp,759,correct,NA,Jan 25 2023 13:36:54,Agnieszka,1
612c8,612c8_session1_listb_naming_trial099_nun.wav,1,b,naming,99,nun,794,correct,NA,Jan 25 2023 13:37:05,Agnieszka,1
612c8,612c8_session1_listb_naming_trial100_pumpkin.wav,1,b,naming,100,pumpkin,829,correct,NA,Jan 25 2023 13:37:14,Agnieszka,1
612c8,612c8_session1_listb_naming_trial101_greenhouse.wav,1,b,naming,101,greenhouse,1135,correct,NA,Jan 25 2023 13:37:22,Agnieszka,1
612c8,612c8_session1_listb_naming_trial102_thermometer.wav,1,b,naming,102,thermometer,858,correct,NA,Jan 25 2023 13:37:31,Agnieszka,1
612c8,612c8_session1_listb_naming_trial103_leaf.wav,1,b,naming,103,leaf,1014,correct,NA,Jan 25 2023 13:37:37,Agnieszka,1
612c8,612c8_session1_listb_naming_trial104_snail.wav,1,b,naming,104,snail,782,correct,NA,Jan 25 2023 13:37:45,Agnieszka,1
612c8,612c8_session1_listb_naming_trial105_balloon.wav,1,b,naming,105,balloon,699,correct,NA,Jan 25 2023 13:37:55,Agnieszka,1
612c8,612c8_session1_listb_naming_trial106_screwdriver.wav,1,b,naming,106,screwdriver,801,correct,NA,Jan 25 2023 13:38:03,Agnieszka,1
612c8,612c8_session1_listb_naming_trial107_football.wav,1,b,naming,107,football,839,correct,NA,Jan 25 2023 13:38:11,Agnieszka,1
612c8,612c8_session1_listb_naming_trial108_torch.wav,1,b,naming,108,torch,877,correct,NA,Jan 25 2023 13:38:19,Agnieszka,1
612c8,612c8_session1_listb_naming_trial109_tooth.wav,1,b,naming,109,tooth,832,correct,NA,Jan 25 2023 13:38:28,Agnieszka,1
612c8,612c8_session1_listb_naming_trial110_pizza.wav,1,b,naming,110,pizza,791,correct,NA,Jan 25 2023 13:38:35,Agnieszka,1
612c8,612c8_session1_listb_naming_trial111_hair.wav,1,b,naming,111,hair,788,correct,NA,Jan 25 2023 13:38:49,Agnieszka,1
612c8,612c8_session1_listb_naming_trial112_baby.wav,1,b,naming,112,baby,817,correct,NA,Jan 25 2023 13:38:56,Agnieszka,1
612c8,612c8_session1_listb_naming_trial113_choir.wav,1,b,naming,113,choir,998,correct,NA,Jan 25 2023 13:39:05,Agnieszka,1
612c8,612c8_session1_listb_naming_trial114_needle.wav,1,b,naming,114,needle,874,correct,NA,Jan 25 2023 13:39:12,Agnieszka,1
612c8,612c8_session1_listb_naming_trial115_television.wav,1,b,naming,115,television,1151,correct,NA,Jan 25 2023 13:39:20,Agnieszka,1
612c8,612c8_session1_listb_naming_trial116_button.wav,1,b,naming,116,button,1065,correct,NA,Jan 25 2023 13:39:27,Agnieszka,1
612c8,612c8_session1_listb_naming_trial117_frog.wav,1,b,naming,117,frog,772,correct,NA,Jan 25 2023 13:39:34,Agnieszka,1
612c8,612c8_session1_listb_naming_trial118_penguin.wav,1,b,naming,118,penguin,797,correct,NA,Jan 25 2023 13:39:41,Agnieszka,1
612c8,612c8_session1_listb_naming_trial119_lab.wav,1,b,naming,119,lab,877,correct,NA,Jan 25 2023 13:39:48,Agnieszka,1
612c8,612c8_session1_listb_naming_trial120_burger.wav,1,b,naming,120,burger,934,correct,NA,Jan 25 2023 13:39:57,Agnieszka,1
612c8,612c8_session1_listb_naming_trial121_watch.wav,1,b,naming,121,watch,734,correct,NA,Jan 25 2023 13:40:04,Agnieszka,1
612c8,612c8_session1_listb_naming_trial122_camera.wav,1,b,naming,122,camera,909,correct,NA,Jan 25 2023 13:40:15,Agnieszka,1
612c8,612c8_session1_listb_naming_trial123_farm.wav,1,b,naming,123,farm,931,correct,NA,Jan 25 2023 13:40:24,Agnieszka,1
612c8,612c8_session1_listb_naming_trial124_cone.wav,1,b,naming,124,cone,877,correct,NA,Jan 25 2023 13:40:32,Agnieszka,1
612c8,612c8_session1_listb_naming_trial125_earring.wav,1,b,naming,125,earring,1212,correct,NA,Jan 25 2023 13:40:40,Agnieszka,1
612c8,612c8_session1_listb_naming_trial126_pool.wav,1,b,naming,126,pool,-1,wrong_word,NA,Jan 25 2023 13:40:46,Agnieszka,1
612c8,612c8_session1_listb_naming_trial127_well.wav,1,b,naming,127,well,858,correct,NA,Jan 25 2023 13:40:57,Agnieszka,1
612c8,612c8_session1_listb_naming_trial128_microphone.wav,1,b,naming,128,microphone,858,correct,NA,Jan 25 2023 13:41:03,Agnieszka,1
612c8,612c8_session1_listb_naming_trial129_devil.wav,1,b,naming,129,devil,880,correct,NA,Jan 25 2023 13:41:13,Agnieszka,1
612c8,612c8_session1_listb_naming_trial130_apron.wav,1,b,naming,130,apron,864,correct,NA,Jan 25 2023 13:41:20,Agnieszka,1
612c8,612c8_session1_listb_naming_trial131_broom.wav,1,b,naming,131,broom,858,correct,NA,Jan 25 2023 13:41:28,Agnieszka,1
612c8,612c8_session1_listb_naming_trial132_ring.wav,1,b,naming,132,ring,778,correct,NA,Jan 25 2023 13:41:36,Agnieszka,1
612c8,612c8_session1_listb_naming_trial133_witch.wav,1,b,naming,133,witch,938,correct,NA,Jan 25 2023 13:41:44,Agnieszka,1
612c8,612c8_session1_listb_naming_trial134_fire.wav,1,b,naming,134,fire,950,correct,NA,Jan 25 2023 13:41:52,Agnieszka,1
612c8,612c8_session1_listb_naming_trial135_coffin.wav,1,b,naming,135,coffin,947,correct,NA,Jan 25 2023 13:41:59,Agnieszka,1
612c8,612c8_session1_listb_naming_trial136_nurse.wav,1,b,naming,136,nurse,1049,correct,NA,Jan 25 2023 13:42:06,Agnieszka,1
612c8,612c8_session1_listb_naming_trial137_tank.wav,1,b,naming,137,tank,963,correct,NA,Jan 25 2023 13:42:14,Agnieszka,1
612c8,612c8_session1_listb_naming_trial138_sheep.wav,1,b,naming,138,sheep,794,correct,NA,Jan 25 2023 13:42:21,Agnieszka,1
612c8,612c8_session1_listb_naming_trial139_banana.wav,1,b,naming,139,banana,826,correct,NA,Jan 25 2023 13:42:29,Agnieszka,1
612c8,612c8_session1_listb_naming_trial140_hedgehog.wav,1,b,naming,140,hedgehog,813,correct,NA,Jan 25 2023 13:42:37,Agnieszka,1
612c8,612c8_session1_listb_naming_trial141_giraffe.wav,1,b,naming,141,giraffe,910,correct,NA,Jan 25 2023 13:42:50,Agnieszka,1
612c8,612c8_session1_listb_naming_trial142_fist.wav,1,b,naming,142,fist,782,correct,NA,Jan 25 2023 13:42:57,Agnieszka,1
612c8,612c8_session1_listb_naming_trial143_face.wav,1,b,naming,143,face,906,correct,NA,Jan 25 2023 13:43:04,Agnieszka,1
612c8,612c8_session1_listb_naming_trial144_guitar.wav,1,b,naming,144,guitar,909,correct,NA,Jan 25 2023 13:43:12,Agnieszka,1
612c8,612c8_session1_listb_naming_trial145_bin.wav,1,b,naming,145,bin,966,correct,NA,Jan 25 2023 13:43:20,Agnieszka,1
612c8,612c8_session1_listb_naming_trial146_nose.wav,1,b,naming,146,nose,801,correct,NA,Jan 25 2023 13:43:28,Agnieszka,1
612c8,612c8_session1_listb_naming_trial147_sink.wav,1,b,naming,147,sink,769,correct,NA,Jan 25 2023 13:43:36,Agnieszka,1
612c8,612c8_session1_listb_naming_trial148_dinosaur.wav,1,b,naming,148,dinosaur,880,correct,NA,Jan 25 2023 13:43:43,Agnieszka,1
612c8,612c8_session1_listb_naming_trial149_shark.wav,1,b,naming,149,shark,756,correct,NA,Jan 25 2023 13:43:51,Agnieszka,1
612c8,612c8_session1_listb_naming_trial150_calendar.wav,1,b,naming,150,calendar,1024,correct,NA,Jan 25 2023 13:43:59,Agnieszka,1
