Participant_ID,File_Name,Session,List,Type_Trial,Trial_Nbr,Target,RT,Response_Trial,Comment,Date_Correction,Assessor_Name,Processed
5e1cf,5e1cf_session1_listb_naming_trial001_needle.wav,1,b,naming,1,needle,914,correct,NA,Jan  4 2023 11:27:15,Agnieszka,1
5e1cf,5e1cf_session1_listb_naming_trial002_mirror.wav,1,b,naming,2,mirror,664,correct,NA,Jan  4 2023 11:27:24,Agnieszka,1
5e1cf,5e1cf_session1_listb_naming_trial003_house.wav,1,b,naming,3,house,973,correct,NA,Jan  4 2023 11:27:34,Agnieszka,1
5e1cf,5e1cf_session1_listb_naming_trial004_pizza.wav,1,b,naming,4,pizza,616,correct,NA,Jan  4 2023 11:27:43,Agnieszka,1
5e1cf,5e1cf_session1_listb_naming_trial005_scarecrow.wav,1,b,naming,5,scarecrow,756,correct,NA,Jan  4 2023 11:27:52,Agnieszka,1
5e1cf,5e1cf_session1_listb_naming_trial006_pool.wav,1,b,naming,6,pool,638,correct,NA,Jan  4 2023 11:28:04,Agnieszka,1
5e1cf,5e1cf_session1_listb_naming_trial007_hedgehog.wav,1,b,naming,7,hedgehog,635,correct,NA,Jan  4 2023 11:28:17,Agnieszka,1
5e1cf,5e1cf_session1_listb_naming_trial008_cannon.wav,1,b,naming,8,cannon,881,correct,NA,Jan  4 2023 11:28:42,Agnieszka,1
5e1cf,5e1cf_session1_listb_naming_trial009_guitar.wav,1,b,naming,9,guitar,670,correct,NA,Jan  4 2023 11:29:01,Agnieszka,1
5e1cf,5e1cf_session1_listb_naming_trial010_shark.wav,1,b,naming,10,shark,661,correct,NA,Jan  4 2023 11:29:28,Agnieszka,1
5e1cf,5e1cf_session1_listb_naming_trial011_lemon.wav,1,b,naming,11,lemon,645,correct,NA,Jan  4 2023 11:29:37,Agnieszka,1
5e1cf,5e1cf_session1_listb_naming_trial012_airport.wav,1,b,naming,12,airport,-1,wrong_word,NA,Jan  4 2023 11:29:44,Agnieszka,1
5e1cf,5e1cf_session1_listb_naming_trial013_car.wav,1,b,naming,13,car,668,correct,NA,Jan  4 2023 11:29:59,Agnieszka,1
5e1cf,5e1cf_session1_listb_naming_trial014_apron.wav,1,b,naming,14,apron,651,correct,NA,Jan  4 2023 11:30:18,Agnieszka,1
5e1cf,5e1cf_session1_listb_naming_trial015_torch.wav,1,b,naming,15,torch,644,correct,NA,Jan  4 2023 11:30:27,Agnieszka,1
5e1cf,5e1cf_session1_listb_naming_trial016_handle.wav,1,b,naming,16,handle,740,correct,NA,Jan  4 2023 11:30:39,Agnieszka,1
5e1cf,5e1cf_session1_listb_naming_trial017_fan.wav,1,b,naming,17,fan,657,correct,NA,Jan  4 2023 11:30:57,Agnieszka,1
5e1cf,5e1cf_session1_listb_naming_trial018_nurse.wav,1,b,naming,18,nurse,735,correct,NA,Jan  4 2023 11:31:06,Agnieszka,1
5e1cf,5e1cf_session1_listb_naming_trial019_football.wav,1,b,naming,19,football,581,correct,NA,Jan  4 2023 11:31:17,Agnieszka,1
5e1cf,5e1cf_session1_listb_naming_trial020_devil.wav,1,b,naming,20,devil,747,correct,NA,Jan  4 2023 11:31:26,Agnieszka,1
5e1cf,5e1cf_session1_listb_naming_trial021_microphone.wav,1,b,naming,21,microphone,664,correct,NA,Jan  4 2023 11:31:36,Agnieszka,1
5e1cf,5e1cf_session1_listb_naming_trial022_jar.wav,1,b,naming,22,jar,670,correct,NA,Jan  4 2023 11:31:52,Agnieszka,1
5e1cf,5e1cf_session1_listb_naming_trial023_man.wav,1,b,naming,23,man,842,correct,NA,Jan  4 2023 11:32:03,Agnieszka,1
5e1cf,5e1cf_session1_listb_naming_trial024_eye.wav,1,b,naming,24,eye,688,correct,NA,Jan  4 2023 11:32:11,Agnieszka,1
5e1cf,5e1cf_session1_listb_naming_trial025_skeleton.wav,1,b,naming,25,skeleton,629,correct,NA,Jan  4 2023 11:32:32,Agnieszka,1
5e1cf,5e1cf_session1_listb_naming_trial026_bin.wav,1,b,naming,26,bin,753,correct,NA,Jan  4 2023 11:32:44,Agnieszka,1
5e1cf,5e1cf_session1_listb_naming_trial027_stapler.wav,1,b,naming,27,stapler,995,correct,NA,Jan  4 2023 11:32:53,Agnieszka,1
5e1cf,5e1cf_session1_listb_naming_trial028_banana.wav,1,b,naming,28,banana,705,correct,NA,Jan  4 2023 11:33:03,Agnieszka,1
5e1cf,5e1cf_session1_listb_naming_trial029_scorpion.wav,1,b,naming,29,scorpion,1052,correct,NA,Jan  4 2023 11:33:12,Agnieszka,1
5e1cf,5e1cf_session1_listb_naming_trial030_moustache.wav,1,b,naming,30,moustache,680,correct,NA,Jan  4 2023 11:33:25,Agnieszka,1
5e1cf,5e1cf_session1_listb_naming_trial031_pirate.wav,1,b,naming,31,pirate,788,correct,NA,Jan  4 2023 11:33:35,Agnieszka,1
5e1cf,5e1cf_session1_listb_naming_trial032_baby.wav,1,b,naming,32,baby,743,correct,NA,Jan  4 2023 11:33:49,Agnieszka,1
5e1cf,5e1cf_session1_listb_naming_trial033_maze.wav,1,b,naming,33,maze,909,correct,NA,Jan  4 2023 11:33:58,Agnieszka,1
5e1cf,5e1cf_session1_listb_naming_trial034_printer.wav,1,b,naming,34,printer,1021,correct,NA,Jan  4 2023 11:34:20,Agnieszka,1
5e1cf,5e1cf_session1_listb_naming_trial035_coconut.wav,1,b,naming,35,coconut,804,correct,NA,Jan  4 2023 11:34:29,Agnieszka,1
5e1cf,5e1cf_session1_listb_naming_trial036_snail.wav,1,b,naming,36,snail,696,correct,NA,Jan  4 2023 11:34:40,Agnieszka,1
5e1cf,5e1cf_session1_listb_naming_trial037_caravan.wav,1,b,naming,37,caravan,762,correct,NA,Jan  4 2023 11:34:48,Agnieszka,1
5e1cf,5e1cf_session1_listb_naming_trial038_dragon.wav,1,b,naming,38,dragon,810,correct,NA,Jan  4 2023 11:34:57,Agnieszka,1
5e1cf,5e1cf_session1_listb_naming_trial039_skateboard.wav,1,b,naming,39,skateboard,625,correct,NA,Jan  4 2023 11:35:13,Agnieszka,1
5e1cf,5e1cf_session1_listb_naming_trial040_sink.wav,1,b,naming,40,sink,979,correct,NA,Jan  4 2023 11:35:22,Agnieszka,1
5e1cf,5e1cf_session1_listb_naming_trial041_spoon.wav,1,b,naming,41,spoon,718,correct,NA,Jan  4 2023 11:35:32,Agnieszka,1
5e1cf,5e1cf_session1_listb_naming_trial042_ankle.wav,1,b,naming,42,ankle,801,correct,NA,Jan  4 2023 11:35:43,Agnieszka,1
5e1cf,5e1cf_session1_listb_naming_trial043_scarf.wav,1,b,naming,43,scarf,638,correct,NA,Jan  4 2023 11:35:53,Agnieszka,1
5e1cf,5e1cf_session1_listb_naming_trial044_fist.wav,1,b,naming,44,fist,1027,correct,NA,Jan  4 2023 11:36:06,Agnieszka,1
5e1cf,5e1cf_session1_listb_naming_trial045_dentist.wav,1,b,naming,45,dentist,1141,correct,NA,Jan  4 2023 11:36:16,Agnieszka,1
5e1cf,5e1cf_session1_listb_naming_trial046_watch.wav,1,b,naming,46,watch,648,correct,NA,Jan  4 2023 11:36:27,Agnieszka,1
5e1cf,5e1cf_session1_listb_naming_trial047_vein.wav,1,b,naming,47,vein,1466,correct,NA,Jan  4 2023 11:36:37,Agnieszka,1
5e1cf,5e1cf_session1_listb_naming_trial048_umbrella.wav,1,b,naming,48,umbrella,813,correct,NA,Jan  4 2023 11:36:47,Agnieszka,1
5e1cf,5e1cf_session1_listb_naming_trial049_choir.wav,1,b,naming,49,choir,785,correct,NA,Jan  4 2023 11:36:59,Agnieszka,1
5e1cf,5e1cf_session1_listb_naming_trial050_tooth.wav,1,b,naming,50,tooth,713,correct,NA,Jan  4 2023 11:37:09,Agnieszka,1
5e1cf,5e1cf_session1_listb_naming_trial051_coffin.wav,1,b,naming,51,coffin,718,correct,NA,Jan  4 2023 11:37:18,Agnieszka,1
5e1cf,5e1cf_session1_listb_naming_trial052_harp.wav,1,b,naming,52,harp,973,correct,NA,Jan  4 2023 11:37:27,Agnieszka,1
5e1cf,5e1cf_session1_listb_naming_trial053_heart.wav,1,b,naming,53,heart,581,correct,NA,Jan  4 2023 11:37:37,Agnieszka,1
5e1cf,5e1cf_session1_listb_naming_trial054_foot.wav,1,b,naming,54,foot,629,correct,NA,Jan  4 2023 11:37:46,Agnieszka,1
5e1cf,5e1cf_session1_listb_naming_trial055_thermometer.wav,1,b,naming,55,thermometer,689,correct,NA,Jan  4 2023 11:37:58,Agnieszka,1
5e1cf,5e1cf_session1_listb_naming_trial056_telephone.wav,1,b,naming,56,telephone,-1,wrong_word,NA,Jan  4 2023 11:38:06,Agnieszka,1
5e1cf,5e1cf_session1_listb_naming_trial057_elephant.wav,1,b,naming,57,elephant,670,correct,NA,Jan  4 2023 11:38:24,Agnieszka,1
5e1cf,5e1cf_session1_listb_naming_trial058_tank.wav,1,b,naming,58,tank,909,correct,NA,Jan  4 2023 11:38:58,Agnieszka,1
5e1cf,5e1cf_session1_listb_naming_trial059_shirt.wav,1,b,naming,59,shirt,669,correct,NA,Jan  4 2023 11:39:22,Agnieszka,1
5e1cf,5e1cf_session1_listb_naming_trial060_television.wav,1,b,naming,60,television,852,correct,NA,Jan  4 2023 11:39:30,Agnieszka,1
5e1cf,5e1cf_session1_listb_naming_trial061_mask.wav,1,b,naming,61,mask,854,correct,NA,Jan  4 2023 11:39:44,Agnieszka,1
5e1cf,5e1cf_session1_listb_naming_trial062_boomerang.wav,1,b,naming,62,boomerang,782,correct,NA,Jan  4 2023 11:39:54,Agnieszka,1
5e1cf,5e1cf_session1_listb_naming_trial063_cactus.wav,1,b,naming,63,cactus,801,correct,NA,Jan  4 2023 11:40:02,Agnieszka,1
5e1cf,5e1cf_session1_listb_naming_trial064_crown.wav,1,b,naming,64,crown,743,correct,NA,Jan  4 2023 11:40:55,Agnieszka,1
5e1cf,5e1cf_session1_listb_naming_trial065_egg.wav,1,b,naming,65,egg,966,correct,NA,Jan  4 2023 11:41:03,Agnieszka,1
5e1cf,5e1cf_session1_listb_naming_trial066_door.wav,1,b,naming,66,door,807,correct,NA,Jan  4 2023 11:41:12,Agnieszka,1
5e1cf,5e1cf_session1_listb_naming_trial067_skull.wav,1,b,naming,67,skull,-1,disfluency,NA,Jan  4 2023 11:41:20,Agnieszka,1
5e1cf,5e1cf_session1_listb_naming_trial068_king.wav,1,b,naming,68,king,960,correct,NA,Jan  4 2023 11:41:45,Agnieszka,1
5e1cf,5e1cf_session1_listb_naming_trial069_cowboy.wav,1,b,naming,69,cowboy,-1,disfluency,NA,Jan  4 2023 11:41:53,Agnieszka,1
5e1cf,5e1cf_session1_listb_naming_trial070_keyboard.wav,1,b,naming,70,keyboard,710,correct,NA,Jan  4 2023 11:42:10,Agnieszka,1
5e1cf,5e1cf_session1_listb_naming_trial071_honey.wav,1,b,naming,71,honey,711,correct,NA,Jan  4 2023 11:42:18,Agnieszka,1
5e1cf,5e1cf_session1_listb_naming_trial072_calendar.wav,1,b,naming,72,calendar,716,correct,NA,Jan  4 2023 11:42:35,Agnieszka,1
5e1cf,5e1cf_session1_listb_naming_trial073_spider.wav,1,b,naming,73,spider,651,correct,NA,Jan  4 2023 11:42:46,Agnieszka,1
5e1cf,5e1cf_session1_listb_naming_trial074_bible.wav,1,b,naming,74,bible,883,correct,NA,Jan  4 2023 11:43:50,Agnieszka,1
5e1cf,5e1cf_session1_listb_naming_trial075_glass.wav,1,b,naming,75,glass,718,correct,NA,Jan  4 2023 11:44:12,Agnieszka,1
5e1cf,5e1cf_session1_listb_naming_trial076_swimming.wav,1,b,naming,76,swimming,682,correct,NA,Jan  4 2023 11:44:20,Agnieszka,1
5e1cf,5e1cf_session1_listb_naming_trial077_button.wav,1,b,naming,77,button,743,correct,NA,Jan  4 2023 11:44:28,Agnieszka,1
5e1cf,5e1cf_session1_listb_naming_trial078_witch.wav,1,b,naming,78,witch,807,correct,NA,Jan  4 2023 11:44:35,Agnieszka,1
5e1cf,5e1cf_session1_listb_naming_trial079_dog.wav,1,b,naming,79,dog,769,correct,NA,Jan  4 2023 11:44:48,Agnieszka,1
5e1cf,5e1cf_session1_listb_naming_trial080_burger.wav,1,b,naming,80,burger,686,correct,NA,Jan  4 2023 11:44:57,Agnieszka,1
5e1cf,5e1cf_session1_listb_naming_trial081_hair.wav,1,b,naming,81,hair,724,correct,NA,Jan  4 2023 11:45:14,Agnieszka,1
5e1cf,5e1cf_session1_listb_naming_trial082_cigarette.wav,1,b,naming,82,cigarette,664,correct,NA,Jan  4 2023 11:45:25,Agnieszka,1
5e1cf,5e1cf_session1_listb_naming_trial083_ambulance.wav,1,b,naming,83,ambulance,641,correct,NA,Jan  4 2023 11:45:34,Agnieszka,1
5e1cf,5e1cf_session1_listb_naming_trial084_earring.wav,1,b,naming,84,earring,817,correct,NA,Jan  4 2023 11:45:50,Agnieszka,1
5e1cf,5e1cf_session1_listb_naming_trial085_greenhouse.wav,1,b,naming,85,greenhouse,670,correct,NA,Jan  4 2023 11:45:59,Agnieszka,1
5e1cf,5e1cf_session1_listb_naming_trial086_face.wav,1,b,naming,86,face,979,correct,NA,Jan  4 2023 11:46:09,Agnieszka,1
5e1cf,5e1cf_session1_listb_naming_trial087_butcher.wav,1,b,naming,87,butcher,791,correct,NA,Jan  4 2023 11:46:19,Agnieszka,1
5e1cf,5e1cf_session1_listb_naming_trial088_fruit.wav,1,b,naming,88,fruit,651,correct,NA,Jan  4 2023 11:46:28,Agnieszka,1
5e1cf,5e1cf_session1_listb_naming_trial089_desert.wav,1,b,naming,89,desert,941,correct,NA,Jan  4 2023 11:46:45,Agnieszka,1
5e1cf,5e1cf_session1_listb_naming_trial090_lizard.wav,1,b,naming,90,lizard,753,correct,NA,Jan  4 2023 11:46:56,Agnieszka,1
5e1cf,5e1cf_session1_listb_naming_trial091_glasses.wav,1,b,naming,91,glasses,641,correct,NA,Jan  4 2023 11:47:06,Agnieszka,1
5e1cf,5e1cf_session1_listb_naming_trial092_leaf.wav,1,b,naming,92,leaf,619,correct,NA,Jan  4 2023 11:47:19,Agnieszka,1
5e1cf,5e1cf_session1_listb_naming_trial093_bed.wav,1,b,naming,93,bed,896,correct,NA,Jan  4 2023 11:47:28,Agnieszka,1
5e1cf,5e1cf_session1_listb_naming_trial094_cone.wav,1,b,naming,94,cone,689,correct,NA,Jan  4 2023 11:47:42,Agnieszka,1
5e1cf,5e1cf_session1_listb_naming_trial095_gun.wav,1,b,naming,95,gun,702,correct,NA,Jan  4 2023 11:48:15,Agnieszka,1
5e1cf,5e1cf_session1_listb_naming_trial096_volcano.wav,1,b,naming,96,volcano,772,correct,NA,Jan  4 2023 11:48:24,Agnieszka,1
5e1cf,5e1cf_session1_listb_naming_trial097_duck.wav,1,b,naming,97,duck,737,correct,NA,Jan  4 2023 11:48:35,Agnieszka,1
5e1cf,5e1cf_session1_listb_naming_trial098_nun.wav,1,b,naming,98,nun,1043,correct,NA,Jan  4 2023 11:48:42,Agnieszka,1
5e1cf,5e1cf_session1_listb_naming_trial099_broom.wav,1,b,naming,99,broom,721,correct,NA,Jan  4 2023 11:48:52,Agnieszka,1
5e1cf,5e1cf_session1_listb_naming_trial100_roof.wav,1,b,naming,100,roof,1001,correct,NA,Jan  4 2023 11:49:00,Agnieszka,1
5e1cf,5e1cf_session1_listb_naming_trial101_lab.wav,1,b,naming,101,lab,782,correct,NA,Jan  4 2023 11:49:12,Agnieszka,1
5e1cf,5e1cf_session1_listb_naming_trial102_cage.wav,1,b,naming,102,cage,1065,correct,NA,Jan  4 2023 11:49:20,Agnieszka,1
5e1cf,5e1cf_session1_listb_naming_trial103_parachute.wav,1,b,naming,103,parachute,973,correct,NA,Jan  4 2023 11:49:27,Agnieszka,1
5e1cf,5e1cf_session1_listb_naming_trial104_iron.wav,1,b,naming,104,iron,762,correct,NA,Jan  4 2023 11:49:45,Agnieszka,1
5e1cf,5e1cf_session1_listb_naming_trial105_sock.wav,1,b,naming,105,sock,832,correct,NA,Jan  4 2023 11:49:58,Agnieszka,1
5e1cf,5e1cf_session1_listb_naming_trial106_chain.wav,1,b,naming,106,chain,689,correct,NA,Jan  4 2023 11:50:11,Agnieszka,1
5e1cf,5e1cf_session1_listb_naming_trial107_parrot.wav,1,b,naming,107,parrot,756,correct,NA,Jan  4 2023 11:50:25,Agnieszka,1
5e1cf,5e1cf_session1_listb_naming_trial108_nose.wav,1,b,naming,108,nose,692,correct,NA,Jan  4 2023 11:50:36,Agnieszka,1
5e1cf,5e1cf_session1_listb_naming_trial109_coffee.wav,1,b,naming,109,coffee,737,correct,NA,Jan  4 2023 11:50:44,Agnieszka,1
5e1cf,5e1cf_session1_listb_naming_trial110_beard.wav,1,b,naming,110,beard,686,correct,NA,Jan  4 2023 11:50:53,Agnieszka,1
5e1cf,5e1cf_session1_listb_naming_trial111_sheep.wav,1,b,naming,111,sheep,747,correct,NA,Jan  4 2023 11:51:01,Agnieszka,1
5e1cf,5e1cf_session1_listb_naming_trial112_balloon.wav,1,b,naming,112,balloon,625,correct,NA,Jan  4 2023 11:51:10,Agnieszka,1
5e1cf,5e1cf_session1_listb_naming_trial113_fire.wav,1,b,naming,113,fire,807,correct,NA,Jan  4 2023 11:51:21,Agnieszka,1
5e1cf,5e1cf_session1_listb_naming_trial114_giraffe.wav,1,b,naming,114,giraffe,638,correct,NA,Jan  4 2023 11:51:33,Agnieszka,1
5e1cf,5e1cf_session1_listb_naming_trial115_back.wav,1,b,naming,115,back,1059,correct,NA,Jan  4 2023 11:51:49,Agnieszka,1
5e1cf,5e1cf_session1_listb_naming_trial116_strawberry.wav,1,b,naming,116,strawberry,667,correct,NA,Jan  4 2023 11:51:57,Agnieszka,1
5e1cf,5e1cf_session1_listb_naming_trial117_wallet.wav,1,b,naming,117,wallet,657,correct,NA,Jan  4 2023 11:52:05,Agnieszka,1
5e1cf,5e1cf_session1_listb_naming_trial118_road.wav,1,b,naming,118,road,985,correct,NA,Jan  4 2023 11:52:23,Agnieszka,1
5e1cf,5e1cf_session1_listb_naming_trial119_camera.wav,1,b,naming,119,camera,711,correct,NA,Jan  4 2023 11:52:35,Agnieszka,1
5e1cf,5e1cf_session1_listb_naming_trial120_chair.wav,1,b,naming,120,chair,762,uncertain,"there seems to be an 'mm' sound before the actual word, also the word said very slowly",Jan  4 2023 11:53:15,Agnieszka,1
5e1cf,5e1cf_session1_listb_naming_trial121_bra.wav,1,b,naming,121,bra,899,correct,NA,Jan  4 2023 11:53:23,Agnieszka,1
5e1cf,5e1cf_session1_listb_naming_trial122_cloud.wav,1,b,naming,122,cloud,734,correct,NA,Jan  4 2023 11:53:37,Agnieszka,1
5e1cf,5e1cf_session1_listb_naming_trial123_diamond.wav,1,b,naming,123,diamond,740,correct,NA,Jan  4 2023 11:53:49,Agnieszka,1
5e1cf,5e1cf_session1_listb_naming_trial124_brain.wav,1,b,naming,124,brain,696,correct,NA,Jan  4 2023 11:54:05,Agnieszka,1
5e1cf,5e1cf_session1_listb_naming_trial125_frog.wav,1,b,naming,125,frog,692,correct,NA,Jan  4 2023 11:54:24,Agnieszka,1
5e1cf,5e1cf_session1_listb_naming_trial126_waiter.wav,1,b,naming,126,waiter,995,correct,NA,Jan  4 2023 11:54:32,Agnieszka,1
5e1cf,5e1cf_session1_listb_naming_trial127_condom.wav,1,b,naming,127,condom,766,correct,NA,Jan  4 2023 11:54:39,Agnieszka,1
5e1cf,5e1cf_session1_listb_naming_trial128_shadow.wav,1,b,naming,128,shadow,887,correct,NA,Jan  4 2023 11:54:48,Agnieszka,1
5e1cf,5e1cf_session1_listb_naming_trial129_calculator.wav,1,b,naming,129,calculator,702,correct,NA,Jan  4 2023 11:54:56,Agnieszka,1
5e1cf,5e1cf_session1_listb_naming_trial130_farm.wav,1,b,naming,130,farm,944,correct,NA,Jan  4 2023 11:55:06,Agnieszka,1
5e1cf,5e1cf_session1_listb_naming_trial131_lion.wav,1,b,naming,131,lion,699,correct,NA,Jan  4 2023 11:55:15,Agnieszka,1
5e1cf,5e1cf_session1_listb_naming_trial132_dolphin.wav,1,b,naming,132,dolphin,667,correct,NA,Jan  4 2023 11:55:24,Agnieszka,1
5e1cf,5e1cf_session1_listb_naming_trial133_ring.wav,1,b,naming,133,ring,664,correct,NA,Jan  4 2023 11:55:34,Agnieszka,1
5e1cf,5e1cf_session1_listb_naming_trial134_feather.wav,1,b,naming,134,feather,705,correct,NA,Jan  4 2023 11:55:42,Agnieszka,1
5e1cf,5e1cf_session1_listb_naming_trial135_screwdriver.wav,1,b,naming,135,screwdriver,670,correct,NA,Jan  4 2023 11:55:51,Agnieszka,1
5e1cf,5e1cf_session1_listb_naming_trial136_hand.wav,1,b,naming,136,hand,613,correct,NA,Jan  4 2023 11:55:59,Agnieszka,1
5e1cf,5e1cf_session1_listb_naming_trial137_broccoli.wav,1,b,naming,137,broccoli,734,correct,NA,Jan  4 2023 11:56:07,Agnieszka,1
5e1cf,5e1cf_session1_listb_naming_trial138_trumpet.wav,1,b,naming,138,trumpet,-1,wrong_word,NA,Jan  4 2023 11:56:15,Agnieszka,1
5e1cf,5e1cf_session1_listb_naming_trial139_pilot.wav,1,b,naming,139,pilot,903,correct,NA,Jan  4 2023 11:56:29,Agnieszka,1
5e1cf,5e1cf_session1_listb_naming_trial140_dinosaur.wav,1,b,naming,140,dinosaur,-1,disfluency,NA,Jan  4 2023 11:56:37,Agnieszka,1
5e1cf,5e1cf_session1_listb_naming_trial141_finger.wav,1,b,naming,141,finger,1221,correct,NA,Jan  4 2023 11:56:44,Agnieszka,1
5e1cf,5e1cf_session1_listb_naming_trial142_penguin.wav,1,b,naming,142,penguin,648,correct,NA,Jan  4 2023 11:56:54,Agnieszka,1
5e1cf,5e1cf_session1_listb_naming_trial143_girl.wav,1,b,naming,143,girl,724,uncertain,a sound before the word (?),Jan  4 2023 11:57:29,Agnieszka,1
5e1cf,5e1cf_session1_listb_naming_trial144_bat.wav,1,b,naming,144,bat,1285,correct,NA,Jan  4 2023 11:57:43,Agnieszka,1
5e1cf,5e1cf_session1_listb_naming_trial145_belt.wav,1,b,naming,145,belt,680,correct,NA,Jan  4 2023 11:57:55,Agnieszka,1
5e1cf,5e1cf_session1_listb_naming_trial146_bedroom.wav,1,b,naming,146,bedroom,1129,correct,NA,Jan  4 2023 11:58:07,Agnieszka,1
5e1cf,5e1cf_session1_listb_naming_trial147_knee.wav,1,b,naming,147,knee,778,correct,NA,Jan  4 2023 11:58:16,Agnieszka,1
5e1cf,5e1cf_session1_listb_naming_trial148_well.wav,1,b,naming,148,well,743,correct,NA,Jan  4 2023 11:58:25,Agnieszka,1
5e1cf,5e1cf_session1_listb_naming_trial149_asparagus.wav,1,b,naming,149,asparagus,842,correct,NA,Jan  4 2023 11:58:34,Agnieszka,1
5e1cf,5e1cf_session1_listb_naming_trial150_pumpkin.wav,1,b,naming,150,pumpkin,708,correct,NA,Jan  4 2023 11:58:43,Agnieszka,1
