Participant_ID,File_Name,Session,List,Type_Trial,Trial_Nbr,Target,RT,Response_Trial,Comment,Date_Correction,Assessor_Name,Processed
5f69c,5f69c_session1_listb_naming_trial001_stapler.wav,1,b,naming,1,stapler,995,correct,NA,Jan 17 2023 11:09:27,Agnieszka,1
5f69c,5f69c_session1_listb_naming_trial002_fist.wav,1,b,naming,2,fist,769,correct,NA,Jan 17 2023 11:09:36,Agnieszka,1
5f69c,5f69c_session1_listb_naming_trial003_cage.wav,1,b,naming,3,cage,-1,wrong_word,NA,Jan 17 2023 11:09:45,Agnieszka,1
5f69c,5f69c_session1_listb_naming_trial004_microphone.wav,1,b,naming,4,microphone,-1,disfluency,NA,Jan 17 2023 11:12:58,Agnieszka,1
5f69c,5f69c_session1_listb_naming_trial005_farm.wav,1,b,naming,5,farm,848,correct,NA,Jan 17 2023 11:13:06,Agnieszka,1
5f69c,5f69c_session1_listb_naming_trial006_keyboard.wav,1,b,naming,6,keyboard,708,correct,NA,Jan 17 2023 11:13:14,Agnieszka,1
5f69c,5f69c_session1_listb_naming_trial007_television.wav,1,b,naming,7,television,-1,wrong_word,NA,Jan 17 2023 11:13:22,Agnieszka,1
5f69c,5f69c_session1_listb_naming_trial008_football.wav,1,b,naming,8,football,1457,uncertain,noisy background,Jan 17 2023 11:13:49,Agnieszka,1
5f69c,5f69c_session1_listb_naming_trial009_well.wav,1,b,naming,9,well,1205,correct,NA,Jan 17 2023 11:13:57,Agnieszka,1
5f69c,5f69c_session1_listb_naming_trial010_fire.wav,1,b,naming,10,fire,1250,correct,NA,Jan 17 2023 11:14:05,Agnieszka,1
5f69c,5f69c_session1_listb_naming_trial011_printer.wav,1,b,naming,11,printer,1390,correct,NA,Jan 17 2023 11:14:18,Agnieszka,1
5f69c,5f69c_session1_listb_naming_trial012_choir.wav,1,b,naming,12,choir,1071,correct,NA,Jan 17 2023 11:14:29,Agnieszka,1
5f69c,5f69c_session1_listb_naming_trial013_bible.wav,1,b,naming,13,bible,1126,correct,NA,Jan 17 2023 11:14:37,Agnieszka,1
5f69c,5f69c_session1_listb_naming_trial014_leaf.wav,1,b,naming,14,leaf,1240,correct,NA,Jan 17 2023 11:14:48,Agnieszka,1
5f69c,5f69c_session1_listb_naming_trial015_lizard.wav,1,b,naming,15,lizard,1565,correct,NA,Jan 17 2023 11:14:57,Agnieszka,1
5f69c,5f69c_session1_listb_naming_trial016_broccoli.wav,1,b,naming,16,broccoli,1575,correct,NA,Jan 17 2023 11:15:12,Agnieszka,1
5f69c,5f69c_session1_listb_naming_trial017_sock.wav,1,b,naming,17,sock,1122,correct,NA,Jan 17 2023 11:15:20,Agnieszka,1
5f69c,5f69c_session1_listb_naming_trial018_cloud.wav,1,b,naming,18,cloud,1677,correct,NA,Jan 17 2023 11:15:28,Agnieszka,1
5f69c,5f69c_session1_listb_naming_trial019_pilot.wav,1,b,naming,19,pilot,995,correct,NA,Jan 17 2023 11:15:36,Agnieszka,1
5f69c,5f69c_session1_listb_naming_trial020_earring.wav,1,b,naming,20,earring,969,correct,NA,Jan 17 2023 11:15:43,Agnieszka,1
5f69c,5f69c_session1_listb_naming_trial021_cone.wav,1,b,naming,21,cone,1087,correct,NA,Jan 17 2023 11:15:50,Agnieszka,1
5f69c,5f69c_session1_listb_naming_trial022_parrot.wav,1,b,naming,22,parrot,737,correct,NA,Jan 17 2023 11:16:01,Agnieszka,1
5f69c,5f69c_session1_listb_naming_trial023_parachute.wav,1,b,naming,23,parachute,-1,wrong_word,NA,Jan 17 2023 11:16:10,Agnieszka,1
5f69c,5f69c_session1_listb_naming_trial024_dragon.wav,1,b,naming,24,dragon,-1,uncertain,noisy background,Jan 17 2023 11:16:30,Agnieszka,1
5f69c,5f69c_session1_listb_naming_trial025_king.wav,1,b,naming,25,king,1562,correct,NA,Jan 17 2023 11:16:37,Agnieszka,1
5f69c,5f69c_session1_listb_naming_trial026_strawberry.wav,1,b,naming,26,strawberry,1119,correct,NA,Jan 17 2023 11:16:44,Agnieszka,1
5f69c,5f69c_session1_listb_naming_trial027_nun.wav,1,b,naming,27,nun,1100,correct,NA,Jan 17 2023 11:16:52,Agnieszka,1
5f69c,5f69c_session1_listb_naming_trial028_lion.wav,1,b,naming,28,lion,989,correct,NA,Jan 17 2023 11:17:00,Agnieszka,1
5f69c,5f69c_session1_listb_naming_trial029_cactus.wav,1,b,naming,29,cactus,782,correct,NA,Jan 17 2023 11:17:10,Agnieszka,1
5f69c,5f69c_session1_listb_naming_trial030_handle.wav,1,b,naming,30,handle,1648,correct,NA,Jan 17 2023 11:17:20,Agnieszka,1
5f69c,5f69c_session1_listb_naming_trial031_skeleton.wav,1,b,naming,31,skeleton,861,correct,NA,Jan 17 2023 11:17:36,Agnieszka,1
5f69c,5f69c_session1_listb_naming_trial032_scarf.wav,1,b,naming,32,scarf,2517,correct,NA,Jan 17 2023 11:17:47,Agnieszka,1
5f69c,5f69c_session1_listb_naming_trial033_volcano.wav,1,b,naming,33,volcano,-1,no_resp,NA,Jan 17 2023 11:17:56,Agnieszka,1
5f69c,5f69c_session1_listb_naming_trial034_calendar.wav,1,b,naming,34,calendar,877,correct,NA,Jan 17 2023 11:18:03,Agnieszka,1
5f69c,5f69c_session1_listb_naming_trial035_wallet.wav,1,b,naming,35,wallet,950,correct,NA,Jan 17 2023 11:18:19,Agnieszka,1
5f69c,5f69c_session1_listb_naming_trial036_skateboard.wav,1,b,naming,36,skateboard,832,correct,NA,Jan 17 2023 11:18:30,Agnieszka,1
5f69c,5f69c_session1_listb_naming_trial037_glass.wav,1,b,naming,37,glass,1068,correct,NA,Jan 17 2023 11:18:37,Agnieszka,1
5f69c,5f69c_session1_listb_naming_trial038_tank.wav,1,b,naming,38,tank,1737,correct,NA,Jan 17 2023 11:19:10,Agnieszka,1
5f69c,5f69c_session1_listb_naming_trial039_coffee.wav,1,b,naming,39,coffee,-1,wrong_word,NA,Jan 17 2023 11:19:18,Agnieszka,1
5f69c,5f69c_session1_listb_naming_trial040_apron.wav,1,b,naming,40,apron,1262,correct,NA,Jan 17 2023 11:19:27,Agnieszka,1
5f69c,5f69c_session1_listb_naming_trial041_lab.wav,1,b,naming,41,lab,-1,no_resp,NA,Jan 17 2023 11:19:34,Agnieszka,1
5f69c,5f69c_session1_listb_naming_trial042_torch.wav,1,b,naming,42,torch,868,correct,NA,Jan 17 2023 11:19:48,Agnieszka,1
5f69c,5f69c_session1_listb_naming_trial043_tooth.wav,1,b,naming,43,tooth,1065,correct,NA,Jan 17 2023 11:19:58,Agnieszka,1
5f69c,5f69c_session1_listb_naming_trial044_cannon.wav,1,b,naming,44,cannon,2087,correct,NA,Jan 17 2023 11:20:09,Agnieszka,1
5f69c,5f69c_session1_listb_naming_trial045_moustache.wav,1,b,naming,45,moustache,2205,correct,NA,Jan 17 2023 11:20:21,Agnieszka,1
5f69c,5f69c_session1_listb_naming_trial046_heart.wav,1,b,naming,46,heart,1129,correct,NA,Jan 17 2023 11:20:30,Agnieszka,1
5f69c,5f69c_session1_listb_naming_trial047_watch.wav,1,b,naming,47,watch,1027,correct,NA,Jan 17 2023 11:20:37,Agnieszka,1
5f69c,5f69c_session1_listb_naming_trial048_hedgehog.wav,1,b,naming,48,hedgehog,1683,uncertain,noisy background,Jan 17 2023 11:21:01,Agnieszka,1
5f69c,5f69c_session1_listb_naming_trial049_vein.wav,1,b,naming,49,vein,-1,no_resp,probably correct but too late - got cut off,Jan 17 2023 11:21:42,Agnieszka,1
5f69c,5f69c_session1_listb_naming_trial050_back.wav,1,b,naming,50,back,957,correct,NA,Jan 17 2023 11:21:54,Agnieszka,1
5f69c,5f69c_session1_listb_naming_trial051_roof.wav,1,b,naming,51,roof,1406,correct,NA,Jan 17 2023 11:22:01,Agnieszka,1
5f69c,5f69c_session1_listb_naming_trial052_cigarette.wav,1,b,naming,52,cigarette,1727,correct,NA,Jan 17 2023 11:22:16,Agnieszka,1
5f69c,5f69c_session1_listb_naming_trial053_asparagus.wav,1,b,naming,53,asparagus,-1,no_resp,NA,Jan 17 2023 11:22:25,Agnieszka,1
5f69c,5f69c_session1_listb_naming_trial054_trumpet.wav,1,b,naming,54,trumpet,-1,no_resp,NA,Jan 17 2023 11:22:33,Agnieszka,1
5f69c,5f69c_session1_listb_naming_trial055_skull.wav,1,b,naming,55,skull,1212,correct,NA,Jan 17 2023 11:22:40,Agnieszka,1
5f69c,5f69c_session1_listb_naming_trial056_fan.wav,1,b,naming,56,fan,908,correct,NA,Jan 17 2023 11:23:10,Agnieszka,1
5f69c,5f69c_session1_listb_naming_trial057_thermometer.wav,1,b,naming,57,thermometer,-1,no_resp,NA,Jan 17 2023 11:23:19,Agnieszka,1
5f69c,5f69c_session1_listb_naming_trial058_shark.wav,1,b,naming,58,shark,1017,correct,NA,Jan 17 2023 11:23:27,Agnieszka,1
5f69c,5f69c_session1_listb_naming_trial059_umbrella.wav,1,b,naming,59,umbrella,661,correct,NA,Jan 17 2023 11:23:35,Agnieszka,1
5f69c,5f69c_session1_listb_naming_trial060_needle.wav,1,b,naming,60,needle,715,correct,NA,Jan 17 2023 11:23:44,Agnieszka,1
5f69c,5f69c_session1_listb_naming_trial061_lemon.wav,1,b,naming,61,lemon,969,correct,NA,Jan 17 2023 11:23:54,Agnieszka,1
5f69c,5f69c_session1_listb_naming_trial062_spider.wav,1,b,naming,62,spider,836,correct,NA,Jan 17 2023 11:24:03,Agnieszka,1
5f69c,5f69c_session1_listb_naming_trial063_calculator.wav,1,b,naming,63,calculator,1027,correct,NA,Jan 17 2023 11:24:10,Agnieszka,1
5f69c,5f69c_session1_listb_naming_trial064_diamond.wav,1,b,naming,64,diamond,969,correct,NA,Jan 17 2023 11:24:20,Agnieszka,1
5f69c,5f69c_session1_listb_naming_trial065_gun.wav,1,b,naming,65,gun,1434,correct,NA,Jan 17 2023 11:24:30,Agnieszka,1
5f69c,5f69c_session1_listb_naming_trial066_coconut.wav,1,b,naming,66,coconut,934,correct,NA,Jan 17 2023 11:24:38,Agnieszka,1
5f69c,5f69c_session1_listb_naming_trial067_pizza.wav,1,b,naming,67,pizza,1078,correct,NA,Jan 17 2023 11:24:48,Agnieszka,1
5f69c,5f69c_session1_listb_naming_trial068_snail.wav,1,b,naming,68,snail,848,correct,NA,Jan 17 2023 11:24:56,Agnieszka,1
5f69c,5f69c_session1_listb_naming_trial069_airport.wav,1,b,naming,69,airport,1403,correct,NA,Jan 17 2023 11:25:04,Agnieszka,1
5f69c,5f69c_session1_listb_naming_trial070_telephone.wav,1,b,naming,70,telephone,1237,correct,NA,Jan 17 2023 11:25:11,Agnieszka,1
5f69c,5f69c_session1_listb_naming_trial071_girl.wav,1,b,naming,71,girl,1345,correct,NA,Jan 17 2023 11:25:18,Agnieszka,1
5f69c,5f69c_session1_listb_naming_trial072_road.wav,1,b,naming,72,road,1743,correct,NA,Jan 17 2023 11:25:24,Agnieszka,1
5f69c,5f69c_session1_listb_naming_trial073_eye.wav,1,b,naming,73,eye,1925,correct,NA,Jan 17 2023 11:25:31,Agnieszka,1
5f69c,5f69c_session1_listb_naming_trial074_hair.wav,1,b,naming,74,hair,1106,correct,NA,Jan 17 2023 11:25:38,Agnieszka,1
5f69c,5f69c_session1_listb_naming_trial075_frog.wav,1,b,naming,75,frog,1788,correct,NA,Jan 17 2023 11:25:44,Agnieszka,1
5f69c,5f69c_session1_listb_naming_trial076_feather.wav,1,b,naming,76,feather,1250,correct,NA,Jan 17 2023 11:25:53,Agnieszka,1
5f69c,5f69c_session1_listb_naming_trial077_duck.wav,1,b,naming,77,duck,1103,correct,NA,Jan 17 2023 11:26:02,Agnieszka,1
5f69c,5f69c_session1_listb_naming_trial078_ring.wav,1,b,naming,78,ring,2145,correct,NA,Jan 17 2023 11:26:09,Agnieszka,1
5f69c,5f69c_session1_listb_naming_trial079_hand.wav,1,b,naming,79,hand,1167,correct,NA,Jan 17 2023 11:26:18,Agnieszka,1
5f69c,5f69c_session1_listb_naming_trial080_knee.wav,1,b,naming,80,knee,1301,correct,NA,Jan 17 2023 11:26:24,Agnieszka,1
5f69c,5f69c_session1_listb_naming_trial081_bedroom.wav,1,b,naming,81,bedroom,-1,no_resp,NA,Jan 17 2023 11:26:31,Agnieszka,1
5f69c,5f69c_session1_listb_naming_trial082_ankle.wav,1,b,naming,82,ankle,931,correct,NA,Jan 17 2023 11:26:40,Agnieszka,1
5f69c,5f69c_session1_listb_naming_trial083_shadow.wav,1,b,naming,83,shadow,1638,correct,NA,Jan 17 2023 11:26:52,Agnieszka,1
5f69c,5f69c_session1_listb_naming_trial084_desert.wav,1,b,naming,84,desert,1403,correct,NA,Jan 17 2023 11:26:59,Agnieszka,1
5f69c,5f69c_session1_listb_naming_trial085_mirror.wav,1,b,naming,85,mirror,1766,correct,NA,Jan 17 2023 11:27:12,Agnieszka,1
5f69c,5f69c_session1_listb_naming_trial086_broom.wav,1,b,naming,86,broom,801,correct,NA,Jan 17 2023 11:27:22,Agnieszka,1
5f69c,5f69c_session1_listb_naming_trial087_face.wav,1,b,naming,87,face,797,correct,NA,Jan 17 2023 11:27:30,Agnieszka,1
5f69c,5f69c_session1_listb_naming_trial088_foot.wav,1,b,naming,88,foot,1603,correct,NA,Jan 17 2023 11:27:43,Agnieszka,1
5f69c,5f69c_session1_listb_naming_trial089_cowboy.wav,1,b,naming,89,cowboy,1046,correct,NA,Jan 17 2023 11:27:51,Agnieszka,1
5f69c,5f69c_session1_listb_naming_trial090_scorpion.wav,1,b,naming,90,scorpion,1173,correct,NA,Jan 17 2023 11:28:00,Agnieszka,1
5f69c,5f69c_session1_listb_naming_trial091_glasses.wav,1,b,naming,91,glasses,1122,correct,NA,Jan 17 2023 11:28:07,Agnieszka,1
5f69c,5f69c_session1_listb_naming_trial092_chain.wav,1,b,naming,92,chain,1447,correct,NA,Jan 17 2023 11:28:16,Agnieszka,1
5f69c,5f69c_session1_listb_naming_trial093_guitar.wav,1,b,naming,93,guitar,2129,correct,NA,Jan 17 2023 11:28:24,Agnieszka,1
5f69c,5f69c_session1_listb_naming_trial094_elephant.wav,1,b,naming,94,elephant,1024,correct,NA,Jan 17 2023 11:28:35,Agnieszka,1
5f69c,5f69c_session1_listb_naming_trial095_banana.wav,1,b,naming,95,banana,1747,correct,NA,Jan 17 2023 11:28:42,Agnieszka,1
5f69c,5f69c_session1_listb_naming_trial096_iron.wav,1,b,naming,96,iron,1278,correct,NA,Jan 17 2023 11:28:50,Agnieszka,1
5f69c,5f69c_session1_listb_naming_trial097_screwdriver.wav,1,b,naming,97,screwdriver,1511,correct,NA,Jan 17 2023 11:28:59,Agnieszka,1
5f69c,5f69c_session1_listb_naming_trial098_butcher.wav,1,b,naming,98,butcher,1444,correct,NA,Jan 17 2023 11:29:08,Agnieszka,1
5f69c,5f69c_session1_listb_naming_trial099_pumpkin.wav,1,b,naming,99,pumpkin,702,correct,NA,Jan 17 2023 11:29:16,Agnieszka,1
5f69c,5f69c_session1_listb_naming_trial100_nurse.wav,1,b,naming,100,nurse,1008,correct,NA,Jan 17 2023 11:29:24,Agnieszka,1
5f69c,5f69c_session1_listb_naming_trial101_caravan.wav,1,b,naming,101,caravan,797,correct,NA,Jan 17 2023 11:29:32,Agnieszka,1
5f69c,5f69c_session1_listb_naming_trial102_fruit.wav,1,b,naming,102,fruit,1788,correct,NA,Jan 17 2023 11:29:38,Agnieszka,1
5f69c,5f69c_session1_listb_naming_trial103_honey.wav,1,b,naming,103,honey,1090,correct,NA,Jan 17 2023 11:29:46,Agnieszka,1
5f69c,5f69c_session1_listb_naming_trial104_nose.wav,1,b,naming,104,nose,823,correct,NA,Jan 17 2023 11:29:53,Agnieszka,1
5f69c,5f69c_session1_listb_naming_trial105_bin.wav,1,b,naming,105,bin,1399,correct,NA,Jan 17 2023 11:30:01,Agnieszka,1
5f69c,5f69c_session1_listb_naming_trial106_belt.wav,1,b,naming,106,belt,941,correct,NA,Jan 17 2023 11:30:09,Agnieszka,1
5f69c,5f69c_session1_listb_naming_trial107_dentist.wav,1,b,naming,107,dentist,-1,wrong_word,NA,Jan 17 2023 11:30:18,Agnieszka,1
5f69c,5f69c_session1_listb_naming_trial108_bra.wav,1,b,naming,108,bra,1157,correct,NA,Jan 17 2023 11:30:28,Agnieszka,1
5f69c,5f69c_session1_listb_naming_trial109_waiter.wav,1,b,naming,109,waiter,1024,correct,NA,Jan 17 2023 11:30:37,Agnieszka,1
5f69c,5f69c_session1_listb_naming_trial110_scarecrow.wav,1,b,naming,110,scarecrow,1033,correct,NA,Jan 17 2023 11:30:45,Agnieszka,1
5f69c,5f69c_session1_listb_naming_trial111_door.wav,1,b,naming,111,door,-1,no_resp,NA,Jan 17 2023 11:30:52,Agnieszka,1
5f69c,5f69c_session1_listb_naming_trial112_brain.wav,1,b,naming,112,brain,731,correct,NA,Jan 17 2023 11:31:02,Agnieszka,1
5f69c,5f69c_session1_listb_naming_trial113_beard.wav,1,b,naming,113,beard,1106,correct,NA,Jan 17 2023 11:31:09,Agnieszka,1
5f69c,5f69c_session1_listb_naming_trial114_camera.wav,1,b,naming,114,camera,-1,wrong_word,NA,Jan 17 2023 11:31:16,Agnieszka,1
5f69c,5f69c_session1_listb_naming_trial115_balloon.wav,1,b,naming,115,balloon,2170,correct,NA,Jan 17 2023 11:31:27,Agnieszka,1
5f69c,5f69c_session1_listb_naming_trial116_coffin.wav,1,b,naming,116,coffin,-1,no_resp,NA,Jan 17 2023 11:31:37,Agnieszka,1
5f69c,5f69c_session1_listb_naming_trial117_sink.wav,1,b,naming,117,sink,861,correct,NA,Jan 17 2023 11:31:45,Agnieszka,1
5f69c,5f69c_session1_listb_naming_trial118_greenhouse.wav,1,b,naming,118,greenhouse,2253,correct,NA,Jan 17 2023 11:31:51,Agnieszka,1
5f69c,5f69c_session1_listb_naming_trial119_giraffe.wav,1,b,naming,119,giraffe,1183,correct,NA,Jan 17 2023 11:32:00,Agnieszka,1
5f69c,5f69c_session1_listb_naming_trial120_chair.wav,1,b,naming,120,chair,1492,correct,NA,Jan 17 2023 11:32:06,Agnieszka,1
5f69c,5f69c_session1_listb_naming_trial121_swimming.wav,1,b,naming,121,swimming,954,correct,NA,Jan 17 2023 11:32:15,Agnieszka,1
5f69c,5f69c_session1_listb_naming_trial122_mask.wav,1,b,naming,122,mask,995,correct,NA,Jan 17 2023 11:32:23,Agnieszka,1
5f69c,5f69c_session1_listb_naming_trial123_witch.wav,1,b,naming,123,witch,880,correct,NA,Jan 17 2023 11:32:32,Agnieszka,1
5f69c,5f69c_session1_listb_naming_trial124_dinosaur.wav,1,b,naming,124,dinosaur,1183,correct,NA,Jan 17 2023 11:32:39,Agnieszka,1
5f69c,5f69c_session1_listb_naming_trial125_maze.wav,1,b,naming,125,maze,1670,correct,NA,Jan 17 2023 11:32:47,Agnieszka,1
5f69c,5f69c_session1_listb_naming_trial126_devil.wav,1,b,naming,126,devil,1352,correct,NA,Jan 17 2023 11:32:55,Agnieszka,1
5f69c,5f69c_session1_listb_naming_trial127_car.wav,1,b,naming,127,car,1189,correct,NA,Jan 17 2023 11:33:03,Agnieszka,1
5f69c,5f69c_session1_listb_naming_trial128_shirt.wav,1,b,naming,128,shirt,1301,correct,NA,Jan 17 2023 11:33:10,Agnieszka,1
5f69c,5f69c_session1_listb_naming_trial129_bed.wav,1,b,naming,129,bed,1288,correct,NA,Jan 17 2023 11:33:19,Agnieszka,1
5f69c,5f69c_session1_listb_naming_trial130_house.wav,1,b,naming,130,house,2473,correct,NA,Jan 17 2023 11:33:26,Agnieszka,1
5f69c,5f69c_session1_listb_naming_trial131_penguin.wav,1,b,naming,131,penguin,1100,correct,NA,Jan 17 2023 11:33:33,Agnieszka,1
5f69c,5f69c_session1_listb_naming_trial132_pirate.wav,1,b,naming,132,pirate,1934,correct,NA,Jan 17 2023 11:33:40,Agnieszka,1
5f69c,5f69c_session1_listb_naming_trial133_dog.wav,1,b,naming,133,dog,1075,correct,NA,Jan 17 2023 11:33:46,Agnieszka,1
5f69c,5f69c_session1_listb_naming_trial134_man.wav,1,b,naming,134,man,1836,correct,NA,Jan 17 2023 11:33:53,Agnieszka,1
5f69c,5f69c_session1_listb_naming_trial135_pool.wav,1,b,naming,135,pool,1250,correct,NA,Jan 17 2023 11:34:02,Agnieszka,1
5f69c,5f69c_session1_listb_naming_trial136_button.wav,1,b,naming,136,button,1027,correct,NA,Jan 17 2023 11:34:09,Agnieszka,1
5f69c,5f69c_session1_listb_naming_trial137_sheep.wav,1,b,naming,137,sheep,1438,correct,NA,Jan 17 2023 11:34:16,Agnieszka,1
5f69c,5f69c_session1_listb_naming_trial138_dolphin.wav,1,b,naming,138,dolphin,1110,correct,NA,Jan 17 2023 11:34:24,Agnieszka,1
5f69c,5f69c_session1_listb_naming_trial139_crown.wav,1,b,naming,139,crown,1584,correct,NA,Jan 17 2023 11:34:36,Agnieszka,1
5f69c,5f69c_session1_listb_naming_trial140_condom.wav,1,b,naming,140,condom,1170,correct,NA,Jan 17 2023 11:34:44,Agnieszka,1
5f69c,5f69c_session1_listb_naming_trial141_finger.wav,1,b,naming,141,finger,1377,correct,NA,Jan 17 2023 11:34:51,Agnieszka,1
5f69c,5f69c_session1_listb_naming_trial142_bat.wav,1,b,naming,142,bat,1135,correct,NA,Jan 17 2023 11:34:59,Agnieszka,1
5f69c,5f69c_session1_listb_naming_trial143_baby.wav,1,b,naming,143,baby,1476,correct,NA,Jan 17 2023 11:35:06,Agnieszka,1
5f69c,5f69c_session1_listb_naming_trial144_jar.wav,1,b,naming,144,jar,1119,correct,NA,Jan 17 2023 11:35:13,Agnieszka,1
5f69c,5f69c_session1_listb_naming_trial145_spoon.wav,1,b,naming,145,spoon,657,correct,NA,Jan 17 2023 11:35:23,Agnieszka,1
5f69c,5f69c_session1_listb_naming_trial146_boomerang.wav,1,b,naming,146,boomerang,794,correct,NA,Jan 17 2023 11:35:32,Agnieszka,1
5f69c,5f69c_session1_listb_naming_trial147_burger.wav,1,b,naming,147,burger,1877,correct,NA,Jan 17 2023 11:35:38,Agnieszka,1
5f69c,5f69c_session1_listb_naming_trial148_egg.wav,1,b,naming,148,egg,1479,correct,NA,Jan 17 2023 11:35:46,Agnieszka,1
5f69c,5f69c_session1_listb_naming_trial149_ambulance.wav,1,b,naming,149,ambulance,1272,correct,NA,Jan 17 2023 11:35:54,Agnieszka,1
5f69c,5f69c_session1_listb_naming_trial150_harp.wav,1,b,naming,150,harp,610,correct,NA,Jan 17 2023 11:36:03,Agnieszka,1
