Participant_ID,File_Name,Session,List,Type_Trial,Trial_Nbr,Target,RT,Response_Trial,Comment,Date_Correction,Assessor_Name,Processed
5d5d6,5d5d6_session1_listb_naming_trial001_tooth.wav,1,b,naming,1,tooth,1049,correct,NA,Feb  3 2023 16:18:20,Agnieszka,1
5d5d6,5d5d6_session1_listb_naming_trial002_skeleton.wav,1,b,naming,2,skeleton,680,correct,NA,Feb  3 2023 16:18:53,Agnieszka,1
5d5d6,5d5d6_session1_listb_naming_trial003_egg.wav,1,b,naming,3,egg,680,correct,NA,Feb  3 2023 16:19:14,Agnieszka,1
5d5d6,5d5d6_session1_listb_naming_trial004_mirror.wav,1,b,naming,4,mirror,724,correct,NA,Feb  3 2023 16:19:22,Agnieszka,1
5d5d6,5d5d6_session1_listb_naming_trial005_hedgehog.wav,1,b,naming,5,hedgehog,676,correct,NA,Feb  3 2023 16:20:31,Agnieszka,1
5d5d6,5d5d6_session1_listb_naming_trial006_printer.wav,1,b,naming,6,printer,832,correct,NA,Feb  3 2023 16:20:54,Agnieszka,1
5d5d6,5d5d6_session1_listb_naming_trial007_choir.wav,1,b,naming,7,choir,772,correct,NA,Feb  3 2023 16:21:03,Agnieszka,1
5d5d6,5d5d6_session1_listb_naming_trial008_pilot.wav,1,b,naming,8,pilot,868,correct,NA,Feb  3 2023 16:21:23,Agnieszka,1
5d5d6,5d5d6_session1_listb_naming_trial009_scarecrow.wav,1,b,naming,9,scarecrow,711,correct,NA,Feb  3 2023 16:21:32,Agnieszka,1
5d5d6,5d5d6_session1_listb_naming_trial010_trumpet.wav,1,b,naming,10,trumpet,925,correct,NA,Feb  3 2023 16:21:48,Agnieszka,1
5d5d6,5d5d6_session1_listb_naming_trial011_elephant.wav,1,b,naming,11,elephant,696,correct,NA,Feb  3 2023 16:22:10,Agnieszka,1
5d5d6,5d5d6_session1_listb_naming_trial012_spoon.wav,1,b,naming,12,spoon,584,correct,NA,Feb  3 2023 16:22:21,Agnieszka,1
5d5d6,5d5d6_session1_listb_naming_trial013_football.wav,1,b,naming,13,football,638,correct,NA,Feb  3 2023 16:22:44,Agnieszka,1
5d5d6,5d5d6_session1_listb_naming_trial014_chain.wav,1,b,naming,14,chain,759,correct,NA,Feb  3 2023 16:23:27,Agnieszka,1
5d5d6,5d5d6_session1_listb_naming_trial015_dog.wav,1,b,naming,15,dog,692,correct,NA,Feb  3 2023 16:23:35,Agnieszka,1
5d5d6,5d5d6_session1_listb_naming_trial016_man.wav,1,b,naming,16,man,734,correct,NA,Feb  3 2023 16:23:49,Agnieszka,1
5d5d6,5d5d6_session1_listb_naming_trial017_chair.wav,1,b,naming,17,chair,711,correct,NA,Feb  3 2023 16:24:53,Agnieszka,1
5d5d6,5d5d6_session1_listb_naming_trial018_knee.wav,1,b,naming,18,knee,753,correct,NA,Feb  3 2023 16:25:13,Agnieszka,1
5d5d6,5d5d6_session1_listb_naming_trial019_fist.wav,1,b,naming,19,fist,664,correct,NA,Feb  3 2023 16:25:31,Agnieszka,1
5d5d6,5d5d6_session1_listb_naming_trial020_snail.wav,1,b,naming,20,snail,632,correct,NA,Feb  3 2023 16:25:49,Agnieszka,1
5d5d6,5d5d6_session1_listb_naming_trial021_camera.wav,1,b,naming,21,camera,842,correct,NA,Feb  3 2023 16:26:03,Agnieszka,1
5d5d6,5d5d6_session1_listb_naming_trial022_moustache.wav,1,b,naming,22,moustache,708,correct,NA,Feb  3 2023 16:26:18,Agnieszka,1
5d5d6,5d5d6_session1_listb_naming_trial023_airport.wav,1,b,naming,23,airport,2056,correct,NA,Feb  3 2023 16:26:41,Agnieszka,1
5d5d6,5d5d6_session1_listb_naming_trial024_strawberry.wav,1,b,naming,24,strawberry,702,correct,NA,Feb  3 2023 16:26:49,Agnieszka,1
5d5d6,5d5d6_session1_listb_naming_trial025_lion.wav,1,b,naming,25,lion,742,correct,NA,Feb  3 2023 16:27:31,Agnieszka,1
5d5d6,5d5d6_session1_listb_naming_trial026_eye.wav,1,b,naming,26,eye,715,correct,NA,Feb  3 2023 16:27:51,Agnieszka,1
5d5d6,5d5d6_session1_listb_naming_trial027_condom.wav,1,b,naming,27,condom,842,correct,NA,Feb  3 2023 16:28:15,Agnieszka,1
5d5d6,5d5d6_session1_listb_naming_trial028_coffee.wav,1,b,naming,28,coffee,868,correct,NA,Feb  3 2023 16:28:31,Agnieszka,1
5d5d6,5d5d6_session1_listb_naming_trial029_spider.wav,1,b,naming,29,spider,587,correct,NA,Feb  3 2023 16:28:42,Agnieszka,1
5d5d6,5d5d6_session1_listb_naming_trial030_pool.wav,1,b,naming,30,pool,680,correct,NA,Feb  3 2023 16:29:02,Agnieszka,1
5d5d6,5d5d6_session1_listb_naming_trial031_dentist.wav,1,b,naming,31,dentist,906,correct,NA,Feb  3 2023 16:29:15,Agnieszka,1
5d5d6,5d5d6_session1_listb_naming_trial032_cloud.wav,1,b,naming,32,cloud,686,correct,NA,Feb  3 2023 16:29:31,Agnieszka,1
5d5d6,5d5d6_session1_listb_naming_trial033_swimming.wav,1,b,naming,33,swimming,976,correct,NA,Feb  3 2023 16:29:52,Agnieszka,1
5d5d6,5d5d6_session1_listb_naming_trial034_sink.wav,1,b,naming,34,sink,743,correct,NA,Feb  3 2023 16:30:08,Agnieszka,1
5d5d6,5d5d6_session1_listb_naming_trial035_parachute.wav,1,b,naming,35,parachute,1001,correct,NA,Feb  3 2023 16:30:31,Agnieszka,1
5d5d6,5d5d6_session1_listb_naming_trial036_fruit.wav,1,b,naming,36,fruit,702,correct,NA,Feb  3 2023 16:31:05,Agnieszka,1
5d5d6,5d5d6_session1_listb_naming_trial037_fan.wav,1,b,naming,37,fan,1297,correct,NA,Feb  3 2023 16:31:23,Agnieszka,1
5d5d6,5d5d6_session1_listb_naming_trial038_giraffe.wav,1,b,naming,38,giraffe,699,correct,NA,Feb  3 2023 16:32:18,Agnieszka,1
5d5d6,5d5d6_session1_listb_naming_trial039_caravan.wav,1,b,naming,39,caravan,969,correct,NA,Feb  3 2023 16:32:28,Agnieszka,1
5d5d6,5d5d6_session1_listb_naming_trial040_glasses.wav,1,b,naming,40,glasses,934,correct,NA,Feb  3 2023 16:32:42,Agnieszka,1
5d5d6,5d5d6_session1_listb_naming_trial041_boomerang.wav,1,b,naming,41,boomerang,778,correct,NA,Feb  3 2023 16:32:51,Agnieszka,1
5d5d6,5d5d6_session1_listb_naming_trial042_shark.wav,1,b,naming,42,shark,766,correct,NA,Feb  3 2023 16:33:03,Agnieszka,1
5d5d6,5d5d6_session1_listb_naming_trial043_screwdriver.wav,1,b,naming,43,screwdriver,782,correct,NA,Feb  3 2023 16:33:12,Agnieszka,1
5d5d6,5d5d6_session1_listb_naming_trial044_pizza.wav,1,b,naming,44,pizza,657,correct,NA,Feb  3 2023 16:33:27,Agnieszka,1
5d5d6,5d5d6_session1_listb_naming_trial045_dragon.wav,1,b,naming,45,dragon,775,correct,NA,Feb  3 2023 16:33:38,Agnieszka,1
5d5d6,5d5d6_session1_listb_naming_trial046_brain.wav,1,b,naming,46,brain,711,correct,NA,Feb  3 2023 16:33:49,Agnieszka,1
5d5d6,5d5d6_session1_listb_naming_trial047_penguin.wav,1,b,naming,47,penguin,702,correct,NA,Feb  3 2023 16:33:58,Agnieszka,1
5d5d6,5d5d6_session1_listb_naming_trial048_pirate.wav,1,b,naming,48,pirate,782,correct,NA,Feb  3 2023 16:34:07,Agnieszka,1
5d5d6,5d5d6_session1_listb_naming_trial049_scorpion.wav,1,b,naming,49,scorpion,638,correct,NA,Feb  3 2023 16:34:15,Agnieszka,1
5d5d6,5d5d6_session1_listb_naming_trial050_car.wav,1,b,naming,50,car,692,correct,NA,Feb  3 2023 16:34:30,Agnieszka,1
5d5d6,5d5d6_session1_listb_naming_trial051_skateboard.wav,1,b,naming,51,skateboard,823,correct,NA,Feb  3 2023 16:34:44,Agnieszka,1
5d5d6,5d5d6_session1_listb_naming_trial052_nurse.wav,1,b,naming,52,nurse,1097,correct,NA,Feb  3 2023 16:34:52,Agnieszka,1
5d5d6,5d5d6_session1_listb_naming_trial053_apron.wav,1,b,naming,53,apron,1141,correct,NA,Feb  3 2023 16:35:01,Agnieszka,1
5d5d6,5d5d6_session1_listb_naming_trial054_bin.wav,1,b,naming,54,bin,711,correct,NA,Feb  3 2023 16:35:10,Agnieszka,1
5d5d6,5d5d6_session1_listb_naming_trial055_broccoli.wav,1,b,naming,55,broccoli,804,correct,NA,Feb  3 2023 16:36:17,Agnieszka,1
5d5d6,5d5d6_session1_listb_naming_trial056_coffin.wav,1,b,naming,56,coffin,756,correct,NA,Feb  3 2023 16:36:28,Agnieszka,1
5d5d6,5d5d6_session1_listb_naming_trial057_butcher.wav,1,b,naming,57,butcher,950,correct,NA,Feb  3 2023 16:36:40,Agnieszka,1
5d5d6,5d5d6_session1_listb_naming_trial058_handle.wav,1,b,naming,58,handle,-1,uncertain,not sure if it's correct or if there's a slight disfluency there (sounds like 'uh' right before the word),Feb  3 2023 16:37:52,Agnieszka,1
5d5d6,5d5d6_session1_listb_naming_trial059_beard.wav,1,b,naming,59,beard,759,correct,NA,Feb  3 2023 16:38:02,Agnieszka,1
5d5d6,5d5d6_session1_listb_naming_trial060_stapler.wav,1,b,naming,60,stapler,915,correct,NA,Feb  3 2023 16:38:10,Agnieszka,1
5d5d6,5d5d6_session1_listb_naming_trial061_fire.wav,1,b,naming,61,fire,673,correct,NA,Feb  3 2023 16:38:18,Agnieszka,1
5d5d6,5d5d6_session1_listb_naming_trial062_coconut.wav,1,b,naming,62,coconut,826,correct,NA,Feb  3 2023 16:38:37,Agnieszka,1
5d5d6,5d5d6_session1_listb_naming_trial063_well.wav,1,b,naming,63,well,947,correct,NA,Feb  3 2023 16:38:55,Agnieszka,1
5d5d6,5d5d6_session1_listb_naming_trial064_parrot.wav,1,b,naming,64,parrot,791,correct,NA,Feb  3 2023 16:39:06,Agnieszka,1
5d5d6,5d5d6_session1_listb_naming_trial065_ring.wav,1,b,naming,65,ring,922,correct,NA,Feb  3 2023 16:39:17,Agnieszka,1
5d5d6,5d5d6_session1_listb_naming_trial066_greenhouse.wav,1,b,naming,66,greenhouse,1540,correct,NA,Feb  3 2023 16:39:38,Agnieszka,1
5d5d6,5d5d6_session1_listb_naming_trial067_baby.wav,1,b,naming,67,baby,858,correct,NA,Feb  3 2023 16:40:08,Agnieszka,1
5d5d6,5d5d6_session1_listb_naming_trial068_waiter.wav,1,b,naming,68,waiter,813,correct,NA,Feb  3 2023 16:40:16,Agnieszka,1
5d5d6,5d5d6_session1_listb_naming_trial069_button.wav,1,b,naming,69,button,740,correct,NA,Feb  3 2023 16:40:25,Agnieszka,1
5d5d6,5d5d6_session1_listb_naming_trial070_watch.wav,1,b,naming,70,watch,683,correct,NA,Feb  3 2023 16:40:33,Agnieszka,1
5d5d6,5d5d6_session1_listb_naming_trial071_cactus.wav,1,b,naming,71,cactus,705,correct,NA,Feb  3 2023 16:40:45,Agnieszka,1
5d5d6,5d5d6_session1_listb_naming_trial072_harp.wav,1,b,naming,72,harp,667,correct,NA,Feb  3 2023 16:41:02,Agnieszka,1
5d5d6,5d5d6_session1_listb_naming_trial073_scarf.wav,1,b,naming,73,scarf,673,correct,NA,Feb  3 2023 16:41:33,Agnieszka,1
5d5d6,5d5d6_session1_listb_naming_trial074_back.wav,1,b,naming,74,back,766,correct,NA,Feb  3 2023 16:41:55,Agnieszka,1
5d5d6,5d5d6_session1_listb_naming_trial075_telephone.wav,1,b,naming,75,telephone,829,correct,NA,Feb  3 2023 16:42:05,Agnieszka,1
5d5d6,5d5d6_session1_listb_naming_trial076_farm.wav,1,b,naming,76,farm,785,correct,NA,Feb  3 2023 16:42:16,Agnieszka,1
5d5d6,5d5d6_session1_listb_naming_trial077_witch.wav,1,b,naming,77,witch,705,correct,NA,Feb  3 2023 16:42:30,Agnieszka,1
5d5d6,5d5d6_session1_listb_naming_trial078_hair.wav,1,b,naming,78,hair,737,correct,NA,Feb  3 2023 16:42:49,Agnieszka,1
5d5d6,5d5d6_session1_listb_naming_trial079_face.wav,1,b,naming,79,face,702,correct,NA,Feb  3 2023 16:43:25,Agnieszka,1
5d5d6,5d5d6_session1_listb_naming_trial080_vein.wav,1,b,naming,80,vein,861,correct,NA,Feb  3 2023 16:44:07,Agnieszka,1
5d5d6,5d5d6_session1_listb_naming_trial081_nose.wav,1,b,naming,81,nose,641,correct,NA,Feb  3 2023 16:44:38,Agnieszka,1
5d5d6,5d5d6_session1_listb_naming_trial082_roof.wav,1,b,naming,82,roof,950,correct,NA,Feb  3 2023 16:44:52,Agnieszka,1
5d5d6,5d5d6_session1_listb_naming_trial083_feather.wav,1,b,naming,83,feather,667,correct,NA,Feb  3 2023 16:45:06,Agnieszka,1
5d5d6,5d5d6_session1_listb_naming_trial084_earring.wav,1,b,naming,84,earring,989,correct,NA,Feb  3 2023 16:45:34,Agnieszka,1
5d5d6,5d5d6_session1_listb_naming_trial085_bedroom.wav,1,b,naming,85,bedroom,954,correct,NA,Feb  3 2023 16:46:13,Agnieszka,1
5d5d6,5d5d6_session1_listb_naming_trial086_devil.wav,1,b,naming,86,devil,832,correct,NA,Feb  3 2023 16:46:29,Agnieszka,1
5d5d6,5d5d6_session1_listb_naming_trial087_lab.wav,1,b,naming,87,lab,1011,correct,NA,Feb  3 2023 16:46:39,Agnieszka,1
5d5d6,5d5d6_session1_listb_naming_trial088_bra.wav,1,b,naming,88,bra,804,correct,NA,Feb  3 2023 16:46:48,Agnieszka,1
5d5d6,5d5d6_session1_listb_naming_trial089_calculator.wav,1,b,naming,89,calculator,810,correct,NA,Feb  3 2023 16:47:15,Agnieszka,1
5d5d6,5d5d6_session1_listb_naming_trial090_lemon.wav,1,b,naming,90,lemon,734,correct,NA,Feb  3 2023 16:47:35,Agnieszka,1
5d5d6,5d5d6_session1_listb_naming_trial091_maze.wav,1,b,naming,91,maze,727,correct,NA,Feb  3 2023 16:47:43,Agnieszka,1
5d5d6,5d5d6_session1_listb_naming_trial092_road.wav,1,b,naming,92,road,797,correct,NA,Feb  3 2023 16:48:14,Agnieszka,1
5d5d6,5d5d6_session1_listb_naming_trial093_microphone.wav,1,b,naming,93,microphone,1097,correct,NA,Feb  3 2023 16:48:50,Agnieszka,1
5d5d6,5d5d6_session1_listb_naming_trial094_calendar.wav,1,b,naming,94,calendar,820,correct,NA,Feb  3 2023 16:49:07,Agnieszka,1
5d5d6,5d5d6_session1_listb_naming_trial095_bible.wav,1,b,naming,95,bible,718,correct,NA,Feb  3 2023 16:49:17,Agnieszka,1
5d5d6,5d5d6_session1_listb_naming_trial096_ambulance.wav,1,b,naming,96,ambulance,1004,correct,NA,Feb  3 2023 16:49:38,Agnieszka,1
5d5d6,5d5d6_session1_listb_naming_trial097_bed.wav,1,b,naming,97,bed,756,correct,NA,Feb  3 2023 16:49:48,Agnieszka,1
5d5d6,5d5d6_session1_listb_naming_trial098_door.wav,1,b,naming,98,door,708,correct,NA,Feb  3 2023 16:49:58,Agnieszka,1
5d5d6,5d5d6_session1_listb_naming_trial099_shirt.wav,1,b,naming,99,shirt,778,correct,NA,Feb  3 2023 16:50:07,Agnieszka,1
5d5d6,5d5d6_session1_listb_naming_trial100_asparagus.wav,1,b,naming,100,asparagus,912,correct,NA,Feb  3 2023 16:50:16,Agnieszka,1
5d5d6,5d5d6_session1_listb_naming_trial101_ankle.wav,1,b,naming,101,ankle,855,correct,NA,Feb  3 2023 16:51:20,Agnieszka,1
5d5d6,5d5d6_session1_listb_naming_trial102_jar.wav,1,b,naming,102,jar,664,correct,NA,Feb  3 2023 16:51:35,Agnieszka,1
5d5d6,5d5d6_session1_listb_naming_trial103_needle.wav,1,b,naming,103,needle,590,correct,NA,Feb  3 2023 16:51:54,Agnieszka,1
5d5d6,5d5d6_session1_listb_naming_trial104_nun.wav,1,b,naming,104,nun,699,correct,NA,Feb  3 2023 16:52:04,Agnieszka,1
5d5d6,5d5d6_session1_listb_naming_trial105_leaf.wav,1,b,naming,105,leaf,711,correct,NA,Feb  3 2023 16:52:20,Agnieszka,1
5d5d6,5d5d6_session1_listb_naming_trial106_umbrella.wav,1,b,naming,106,umbrella,731,correct,NA,Feb  3 2023 16:52:36,Agnieszka,1
5d5d6,5d5d6_session1_listb_naming_trial107_heart.wav,1,b,naming,107,heart,632,correct,NA,Feb  3 2023 16:52:46,Agnieszka,1
5d5d6,5d5d6_session1_listb_naming_trial108_television.wav,1,b,naming,108,television,1055,correct,NA,Feb  3 2023 16:53:14,Agnieszka,1
5d5d6,5d5d6_session1_listb_naming_trial109_tank.wav,1,b,naming,109,tank,823,correct,NA,Feb  3 2023 16:53:42,Agnieszka,1
5d5d6,5d5d6_session1_listb_naming_trial110_hand.wav,1,b,naming,110,hand,641,correct,NA,Feb  3 2023 16:53:54,Agnieszka,1
5d5d6,5d5d6_session1_listb_naming_trial111_pumpkin.wav,1,b,naming,111,pumpkin,705,correct,NA,Feb  3 2023 16:54:18,Agnieszka,1
5d5d6,5d5d6_session1_listb_naming_trial112_foot.wav,1,b,naming,112,foot,670,correct,NA,Feb  3 2023 16:54:39,Agnieszka,1
5d5d6,5d5d6_session1_listb_naming_trial113_torch.wav,1,b,naming,113,torch,702,correct,NA,Feb  3 2023 16:55:12,Agnieszka,1
5d5d6,5d5d6_session1_listb_naming_trial114_balloon.wav,1,b,naming,114,balloon,731,correct,NA,Feb  3 2023 16:55:42,Agnieszka,1
5d5d6,5d5d6_session1_listb_naming_trial115_mask.wav,1,b,naming,115,mask,823,correct,NA,Feb  3 2023 16:55:56,Agnieszka,1
5d5d6,5d5d6_session1_listb_naming_trial116_dinosaur.wav,1,b,naming,116,dinosaur,877,correct,NA,Feb  3 2023 16:56:09,Agnieszka,1
5d5d6,5d5d6_session1_listb_naming_trial117_glass.wav,1,b,naming,117,glass,1011,correct,NA,Feb  3 2023 16:56:26,Agnieszka,1
5d5d6,5d5d6_session1_listb_naming_trial118_wallet.wav,1,b,naming,118,wallet,909,correct,NA,Feb  3 2023 16:56:36,Agnieszka,1
5d5d6,5d5d6_session1_listb_naming_trial119_iron.wav,1,b,naming,119,iron,915,correct,NA,Feb  3 2023 16:56:46,Agnieszka,1
5d5d6,5d5d6_session1_listb_naming_trial120_girl.wav,1,b,naming,120,girl,804,correct,NA,Feb  3 2023 16:57:01,Agnieszka,1
5d5d6,5d5d6_session1_listb_naming_trial121_desert.wav,1,b,naming,121,desert,906,correct,NA,Feb  3 2023 16:57:13,Agnieszka,1
5d5d6,5d5d6_session1_listb_naming_trial122_keyboard.wav,1,b,naming,122,keyboard,731,correct,NA,Feb  3 2023 16:57:41,Agnieszka,1
5d5d6,5d5d6_session1_listb_naming_trial123_volcano.wav,1,b,naming,123,volcano,868,correct,NA,Feb  3 2023 16:57:55,Agnieszka,1
5d5d6,5d5d6_session1_listb_naming_trial124_frog.wav,1,b,naming,124,frog,702,correct,NA,Feb  3 2023 16:58:05,Agnieszka,1
5d5d6,5d5d6_session1_listb_naming_trial125_honey.wav,1,b,naming,125,honey,737,correct,NA,Feb  3 2023 16:58:16,Agnieszka,1
5d5d6,5d5d6_session1_listb_naming_trial126_diamond.wav,1,b,naming,126,diamond,667,correct,NA,Feb  3 2023 16:58:44,Agnieszka,1
5d5d6,5d5d6_session1_listb_naming_trial127_skull.wav,1,b,naming,127,skull,632,correct,NA,Feb  3 2023 16:59:07,Agnieszka,1
5d5d6,5d5d6_session1_listb_naming_trial128_finger.wav,1,b,naming,128,finger,651,correct,NA,Feb  3 2023 16:59:22,Agnieszka,1
5d5d6,5d5d6_session1_listb_naming_trial129_belt.wav,1,b,naming,129,belt,683,correct,NA,Feb  3 2023 16:59:30,Agnieszka,1
5d5d6,5d5d6_session1_listb_naming_trial130_broom.wav,1,b,naming,130,broom,842,correct,NA,Feb  3 2023 16:59:43,Agnieszka,1
5d5d6,5d5d6_session1_listb_naming_trial131_cannon.wav,1,b,naming,131,cannon,1282,correct,NA,Feb  3 2023 16:59:54,Agnieszka,1
5d5d6,5d5d6_session1_listb_naming_trial132_shadow.wav,1,b,naming,132,shadow,899,correct,NA,Feb  3 2023 17:00:01,Agnieszka,1
5d5d6,5d5d6_session1_listb_naming_trial133_thermometer.wav,1,b,naming,133,thermometer,893,correct,NA,Feb  3 2023 17:00:11,Agnieszka,1
5d5d6,5d5d6_session1_listb_naming_trial134_sheep.wav,1,b,naming,134,sheep,686,correct,NA,Feb  3 2023 17:00:26,Agnieszka,1
5d5d6,5d5d6_session1_listb_naming_trial135_gun.wav,1,b,naming,135,gun,896,correct,NA,Feb  3 2023 17:00:43,Agnieszka,1
5d5d6,5d5d6_session1_listb_naming_trial136_dolphin.wav,1,b,naming,136,dolphin,801,correct,NA,Feb  3 2023 17:01:15,Agnieszka,1
5d5d6,5d5d6_session1_listb_naming_trial137_sock.wav,1,b,naming,137,sock,852,correct,NA,Feb  3 2023 17:01:23,Agnieszka,1
5d5d6,5d5d6_session1_listb_naming_trial138_cage.wav,1,b,naming,138,cage,801,correct,NA,Feb  3 2023 17:01:35,Agnieszka,1
5d5d6,5d5d6_session1_listb_naming_trial139_cowboy.wav,1,b,naming,139,cowboy,893,correct,NA,Feb  3 2023 17:01:45,Agnieszka,1
5d5d6,5d5d6_session1_listb_naming_trial140_burger.wav,1,b,naming,140,burger,801,correct,NA,Feb  3 2023 17:02:01,Agnieszka,1
5d5d6,5d5d6_session1_listb_naming_trial141_banana.wav,1,b,naming,141,banana,629,correct,NA,Feb  3 2023 17:02:12,Agnieszka,1
5d5d6,5d5d6_session1_listb_naming_trial142_crown.wav,1,b,naming,142,crown,708,correct,NA,Feb  3 2023 17:02:26,Agnieszka,1
5d5d6,5d5d6_session1_listb_naming_trial143_duck.wav,1,b,naming,143,duck,740,correct,NA,Feb  3 2023 17:02:40,Agnieszka,1
5d5d6,5d5d6_session1_listb_naming_trial144_house.wav,1,b,naming,144,house,657,correct,NA,Feb  3 2023 17:02:55,Agnieszka,1
5d5d6,5d5d6_session1_listb_naming_trial145_bat.wav,1,b,naming,145,bat,651,correct,NA,Feb  3 2023 17:03:02,Agnieszka,1
5d5d6,5d5d6_session1_listb_naming_trial146_king.wav,1,b,naming,146,king,1024,correct,NA,Feb  3 2023 17:03:20,Agnieszka,1
5d5d6,5d5d6_session1_listb_naming_trial147_guitar.wav,1,b,naming,147,guitar,829,correct,NA,Feb  3 2023 17:03:41,Agnieszka,1
5d5d6,5d5d6_session1_listb_naming_trial148_lizard.wav,1,b,naming,148,lizard,686,correct,NA,Feb  3 2023 17:03:53,Agnieszka,1
5d5d6,5d5d6_session1_listb_naming_trial149_cigarette.wav,1,b,naming,149,cigarette,759,correct,NA,Feb  3 2023 17:04:02,Agnieszka,1
5d5d6,5d5d6_session1_listb_naming_trial150_cone.wav,1,b,naming,150,cone,711,correct,NA,Feb  3 2023 17:04:15,Agnieszka,1
