Participant_ID,File_Name,Session,List,Type_Trial,Trial_Nbr,Target,RT,Response_Trial,Comment,Date_Correction,Assessor_Name,Processed
62a12,62a12_session1_listb_naming_trial001_desert.wav,1,b,naming,1,desert,1050,correct,NA,Mar 29 2023 09:49:54,Pam,1
62a12,62a12_session1_listb_naming_trial002_cloud.wav,1,b,naming,2,cloud,820,correct,NA,Mar 29 2023 09:50:25,Pam,1
62a12,62a12_session1_listb_naming_trial003_diamond.wav,1,b,naming,3,diamond,796,correct,NA,Mar 29 2023 09:50:54,Pam,1
62a12,62a12_session1_listb_naming_trial004_car.wav,1,b,naming,4,car,760,correct,NA,Mar 29 2023 09:51:11,Pam,1
62a12,62a12_session1_listb_naming_trial005_brain.wav,1,b,naming,5,brain,849,correct,NA,Mar 29 2023 09:51:26,Pam,1
62a12,62a12_session1_listb_naming_trial006_parrot.wav,1,b,naming,6,parrot,925,correct,NA,Mar 29 2023 09:51:50,Pam,1
62a12,62a12_session1_listb_naming_trial007_fist.wav,1,b,naming,7,fist,742,correct,NA,Mar 29 2023 09:52:19,Pam,1
62a12,62a12_session1_listb_naming_trial008_chain.wav,1,b,naming,8,chain,942,correct,NA,Mar 29 2023 09:52:33,Pam,1
62a12,62a12_session1_listb_naming_trial009_dragon.wav,1,b,naming,9,dragon,914,correct,NA,Mar 29 2023 09:52:54,Pam,1
62a12,62a12_session1_listb_naming_trial010_greenhouse.wav,1,b,naming,10,greenhouse,923,correct,NA,Mar 29 2023 10:09:27,Pam,1
62a12,62a12_session1_listb_naming_trial011_asparagus.wav,1,b,naming,11,asparagus,962,correct,NA,Mar 29 2023 10:10:58,Pam,1
62a12,62a12_session1_listb_naming_trial012_pirate.wav,1,b,naming,12,pirate,844,correct,NA,Mar 29 2023 10:11:20,Pam,1
62a12,62a12_session1_listb_naming_trial013_lab.wav,1,b,naming,13,lab,998,correct,NA,Mar 29 2023 10:11:34,Pam,1
62a12,62a12_session1_listb_naming_trial014_ambulance.wav,1,b,naming,14,ambulance,1026,correct,NA,Mar 29 2023 10:11:52,Pam,1
62a12,62a12_session1_listb_naming_trial015_thermometer.wav,1,b,naming,15,thermometer,1486,correct,NA,Mar 29 2023 10:12:12,Pam,1
62a12,62a12_session1_listb_naming_trial016_dinosaur.wav,1,b,naming,16,dinosaur,1739,correct,NA,Mar 29 2023 10:12:27,Pam,1
62a12,62a12_session1_listb_naming_trial017_harp.wav,1,b,naming,17,harp,839,correct,NA,Mar 29 2023 10:12:40,Pam,1
62a12,62a12_session1_listb_naming_trial018_caravan.wav,1,b,naming,18,caravan,1184,correct,NA,Mar 29 2023 10:13:26,Pam,1
62a12,62a12_session1_listb_naming_trial019_fire.wav,1,b,naming,19,fire,863,correct,NA,Mar 29 2023 10:13:49,Pam,1
62a12,62a12_session1_listb_naming_trial020_tooth.wav,1,b,naming,20,tooth,1003,correct,NA,Mar 29 2023 10:14:07,Pam,1
62a12,62a12_session1_listb_naming_trial021_ankle.wav,1,b,naming,21,ankle,1655,correct,NA,Mar 29 2023 10:14:33,Pam,1
62a12,62a12_session1_listb_naming_trial022_spider.wav,1,b,naming,22,spider,993,correct,NA,Mar 29 2023 10:14:48,Pam,1
62a12,62a12_session1_listb_naming_trial023_witch.wav,1,b,naming,23,witch,844,correct,NA,Mar 29 2023 10:15:07,Pam,1
62a12,62a12_session1_listb_naming_trial024_television.wav,1,b,naming,24,television,817,correct,NA,Mar 29 2023 10:15:25,Pam,1
62a12,62a12_session1_listb_naming_trial025_scarf.wav,1,b,naming,25,scarf,815,correct,NA,Mar 29 2023 10:15:44,Pam,1
62a12,62a12_session1_listb_naming_trial026_lion.wav,1,b,naming,26,lion,851,correct,NA,Mar 29 2023 10:16:01,Pam,1
62a12,62a12_session1_listb_naming_trial027_shadow.wav,1,b,naming,27,shadow,855,correct,NA,Mar 29 2023 10:16:16,Pam,1
62a12,62a12_session1_listb_naming_trial028_waiter.wav,1,b,naming,28,waiter,930,correct,NA,Mar 29 2023 10:16:32,Pam,1
62a12,62a12_session1_listb_naming_trial029_snail.wav,1,b,naming,29,snail,765,correct,NA,Mar 29 2023 10:16:48,Pam,1
62a12,62a12_session1_listb_naming_trial030_finger.wav,1,b,naming,30,finger,1086,correct,NA,Mar 29 2023 10:17:03,Pam,1
62a12,62a12_session1_listb_naming_trial031_dolphin.wav,1,b,naming,31,dolphin,975,correct,NA,Mar 29 2023 10:17:24,Pam,1
62a12,62a12_session1_listb_naming_trial032_frog.wav,1,b,naming,32,frog,754,correct,NA,Mar 29 2023 10:17:44,Pam,1
62a12,62a12_session1_listb_naming_trial033_devil.wav,1,b,naming,33,devil,942,correct,NA,Mar 29 2023 10:18:00,Pam,1
62a12,62a12_session1_listb_naming_trial034_umbrella.wav,1,b,naming,34,umbrella,892,correct,NA,Mar 29 2023 10:18:14,Pam,1
62a12,62a12_session1_listb_naming_trial035_cone.wav,1,b,naming,35,cone,1124,correct,NA,Mar 29 2023 10:18:34,Pam,1
62a12,62a12_session1_listb_naming_trial036_microphone.wav,1,b,naming,36,microphone,786,correct,NA,Mar 29 2023 10:18:53,Pam,1
62a12,62a12_session1_listb_naming_trial037_door.wav,1,b,naming,37,door,1046,correct,NA,Mar 29 2023 10:19:10,Pam,1
62a12,62a12_session1_listb_naming_trial038_lemon.wav,1,b,naming,38,lemon,825,correct,NA,Mar 29 2023 10:19:25,Pam,1
62a12,62a12_session1_listb_naming_trial039_torch.wav,1,b,naming,39,torch,1117,correct,NA,Mar 29 2023 10:19:40,Pam,1
62a12,62a12_session1_listb_naming_trial040_sheep.wav,1,b,naming,40,sheep,812,correct,NA,Mar 29 2023 10:19:58,Pam,1
62a12,62a12_session1_listb_naming_trial041_scarecrow.wav,1,b,naming,41,scarecrow,744,correct,NA,Mar 29 2023 10:20:22,Pam,1
62a12,62a12_session1_listb_naming_trial042_scorpion.wav,1,b,naming,42,scorpion,735,correct,NA,Mar 29 2023 10:20:39,Pam,1
62a12,62a12_session1_listb_naming_trial043_gun.wav,1,b,naming,43,gun,1249,correct,NA,Mar 29 2023 10:20:55,Pam,1
62a12,62a12_session1_listb_naming_trial044_telephone.wav,1,b,naming,44,telephone,863,correct,NA,Mar 29 2023 10:21:21,Pam,1
62a12,62a12_session1_listb_naming_trial045_hedgehog.wav,1,b,naming,45,hedgehog,1040,correct,NA,Mar 29 2023 10:21:38,Pam,1
62a12,62a12_session1_listb_naming_trial046_duck.wav,1,b,naming,46,duck,1197,correct,NA,Mar 29 2023 10:21:58,Pam,1
62a12,62a12_session1_listb_naming_trial047_trumpet.wav,1,b,naming,47,trumpet,969,correct,NA,Mar 29 2023 10:22:15,Pam,1
62a12,62a12_session1_listb_naming_trial048_farm.wav,1,b,naming,48,farm,1219,correct,NA,Mar 29 2023 10:22:32,Pam,1
62a12,62a12_session1_listb_naming_trial049_ring.wav,1,b,naming,49,ring,779,correct,NA,Mar 29 2023 10:22:49,Pam,1
62a12,62a12_session1_listb_naming_trial050_fan.wav,1,b,naming,50,fan,896,correct,NA,Mar 29 2023 10:23:02,Pam,1
62a12,62a12_session1_listb_naming_trial051_honey.wav,1,b,naming,51,honey,780,correct,NA,Mar 29 2023 10:23:19,Pam,1
62a12,62a12_session1_listb_naming_trial052_guitar.wav,1,b,naming,52,guitar,790,correct,NA,Mar 29 2023 10:27:57,Pam,1
62a12,62a12_session1_listb_naming_trial053_swimming.wav,1,b,naming,53,swimming,-1,wrong_word,NA,Mar 29 2023 10:28:07,Pam,1
62a12,62a12_session1_listb_naming_trial054_glasses.wav,1,b,naming,54,glasses,903,correct,NA,Mar 29 2023 10:28:22,Pam,1
62a12,62a12_session1_listb_naming_trial055_crown.wav,1,b,naming,55,crown,741,correct,NA,Mar 29 2023 10:28:38,Pam,1
62a12,62a12_session1_listb_naming_trial056_tank.wav,1,b,naming,56,tank,772,correct,NA,Mar 29 2023 10:28:52,Pam,1
62a12,62a12_session1_listb_naming_trial057_banana.wav,1,b,naming,57,banana,852,correct,NA,Mar 29 2023 10:29:08,Pam,1
62a12,62a12_session1_listb_naming_trial058_spoon.wav,1,b,naming,58,spoon,701,correct,NA,Mar 29 2023 10:29:32,Pam,1
62a12,62a12_session1_listb_naming_trial059_apron.wav,1,b,naming,59,apron,862,correct,NA,Mar 29 2023 10:29:47,Pam,1
62a12,62a12_session1_listb_naming_trial060_egg.wav,1,b,naming,60,egg,1025,correct,NA,Mar 29 2023 10:30:02,Pam,1
62a12,62a12_session1_listb_naming_trial061_maze.wav,1,b,naming,61,maze,805,correct,NA,Mar 29 2023 10:30:17,Pam,1
62a12,62a12_session1_listb_naming_trial062_broccoli.wav,1,b,naming,62,broccoli,1045,correct,NA,Mar 29 2023 10:30:32,Pam,1
62a12,62a12_session1_listb_naming_trial063_moustache.wav,1,b,naming,63,moustache,722,correct,NA,Mar 29 2023 10:30:48,Pam,1
62a12,62a12_session1_listb_naming_trial064_strawberry.wav,1,b,naming,64,strawberry,720,correct,NA,Mar 29 2023 10:31:05,Pam,1
62a12,62a12_session1_listb_naming_trial065_printer.wav,1,b,naming,65,printer,1263,correct,NA,Mar 29 2023 10:31:20,Pam,1
62a12,62a12_session1_listb_naming_trial066_pool.wav,1,b,naming,66,pool,855,correct,NA,Mar 29 2023 10:32:23,Pam,1
62a12,62a12_session1_listb_naming_trial067_coconut.wav,1,b,naming,67,coconut,1077,correct,NA,Mar 29 2023 10:32:41,Pam,1
62a12,62a12_session1_listb_naming_trial068_skeleton.wav,1,b,naming,68,skeleton,741,correct,NA,Mar 29 2023 10:33:19,Pam,1
62a12,62a12_session1_listb_naming_trial069_shirt.wav,1,b,naming,69,shirt,780,correct,NA,Mar 29 2023 10:33:35,Pam,1
62a12,62a12_session1_listb_naming_trial070_man.wav,1,b,naming,70,man,811,correct,NA,Mar 29 2023 10:33:50,Pam,1
62a12,62a12_session1_listb_naming_trial071_earring.wav,1,b,naming,71,earring,1303,correct,NA,Mar 29 2023 10:34:04,Pam,1
62a12,62a12_session1_listb_naming_trial072_nurse.wav,1,b,naming,72,nurse,946,correct,NA,Mar 29 2023 10:34:17,Pam,1
62a12,62a12_session1_listb_naming_trial073_pizza.wav,1,b,naming,73,pizza,765,correct,NA,Mar 29 2023 10:34:34,Pam,1
62a12,62a12_session1_listb_naming_trial074_hand.wav,1,b,naming,74,hand,878,correct,NA,Mar 29 2023 10:34:53,Pam,1
62a12,62a12_session1_listb_naming_trial075_foot.wav,1,b,naming,75,foot,786,correct,NA,Mar 29 2023 10:35:09,Pam,1
62a12,62a12_session1_listb_naming_trial076_back.wav,1,b,naming,76,back,992,correct,NA,Mar 29 2023 10:35:38,Pam,1
62a12,62a12_session1_listb_naming_trial077_iron.wav,1,b,naming,77,iron,1140,correct,NA,Mar 29 2023 10:35:53,Pam,1
62a12,62a12_session1_listb_naming_trial078_knee.wav,1,b,naming,78,knee,1103,correct,NA,Mar 29 2023 10:36:08,Pam,1
62a12,62a12_session1_listb_naming_trial079_pilot.wav,1,b,naming,79,pilot,1010,correct,NA,Mar 29 2023 10:36:22,Pam,1
62a12,62a12_session1_listb_naming_trial080_shark.wav,1,b,naming,80,shark,952,correct,NA,Mar 29 2023 10:36:42,Pam,1
62a12,62a12_session1_listb_naming_trial081_skateboard.wav,1,b,naming,81,skateboard,783,correct,NA,Mar 29 2023 10:36:58,Pam,1
62a12,62a12_session1_listb_naming_trial082_condom.wav,1,b,naming,82,condom,1057,correct,NA,Mar 29 2023 10:37:19,Pam,1
62a12,62a12_session1_listb_naming_trial083_mask.wav,1,b,naming,83,mask,912,correct,NA,Mar 29 2023 10:37:55,Pam,1
62a12,62a12_session1_listb_naming_trial084_needle.wav,1,b,naming,84,needle,875,correct,NA,Mar 29 2023 10:38:13,Pam,1
62a12,62a12_session1_listb_naming_trial085_belt.wav,1,b,naming,85,belt,988,correct,NA,Mar 29 2023 10:38:30,Pam,1
62a12,62a12_session1_listb_naming_trial086_king.wav,1,b,naming,86,king,935,correct,NA,Mar 29 2023 10:39:03,Pam,1
62a12,62a12_session1_listb_naming_trial087_cannon.wav,1,b,naming,87,cannon,806,correct,NA,Mar 29 2023 10:39:17,Pam,1
62a12,62a12_session1_listb_naming_trial088_penguin.wav,1,b,naming,88,penguin,882,correct,NA,Mar 29 2023 10:39:33,Pam,1
62a12,62a12_session1_listb_naming_trial089_parachute.wav,1,b,naming,89,parachute,1280,correct,NA,Mar 29 2023 10:39:51,Pam,1
62a12,62a12_session1_listb_naming_trial090_wallet.wav,1,b,naming,90,wallet,887,correct,NA,Mar 29 2023 10:40:23,Pam,1
62a12,62a12_session1_listb_naming_trial091_broom.wav,1,b,naming,91,broom,698,correct,NA,Mar 29 2023 10:41:27,Pam,1
62a12,62a12_session1_listb_naming_trial092_screwdriver.wav,1,b,naming,92,screwdriver,801,correct,NA,Mar 29 2023 10:41:42,Pam,1
62a12,62a12_session1_listb_naming_trial093_calendar.wav,1,b,naming,93,calendar,941,correct,NA,Mar 29 2023 10:41:58,Pam,1
62a12,62a12_session1_listb_naming_trial094_nose.wav,1,b,naming,94,nose,731,correct,NA,Mar 29 2023 10:42:16,Pam,1
62a12,62a12_session1_listb_naming_trial095_pumpkin.wav,1,b,naming,95,pumpkin,961,correct,NA,Mar 29 2023 10:42:45,Pam,1
62a12,62a12_session1_listb_naming_trial096_leaf.wav,1,b,naming,96,leaf,799,correct,NA,Mar 29 2023 10:42:59,Pam,1
62a12,62a12_session1_listb_naming_trial097_choir.wav,1,b,naming,97,choir,889,correct,NA,Mar 29 2023 10:43:18,Pam,1
62a12,62a12_session1_listb_naming_trial098_camera.wav,1,b,naming,98,camera,1051,correct,NA,Mar 29 2023 10:43:35,Pam,1
62a12,62a12_session1_listb_naming_trial099_well.wav,1,b,naming,99,well,972,correct,NA,Mar 29 2023 10:45:10,Pam,1
62a12,62a12_session1_listb_naming_trial100_face.wav,1,b,naming,100,face,800,correct,NA,Mar 29 2023 10:45:24,Pam,1
62a12,62a12_session1_listb_naming_trial101_nun.wav,1,b,naming,101,nun,907,correct,NA,Mar 29 2023 10:45:37,Pam,1
62a12,62a12_session1_listb_naming_trial102_roof.wav,1,b,naming,102,roof,1133,correct,NA,Mar 29 2023 10:45:51,Pam,1
62a12,62a12_session1_listb_naming_trial103_dentist.wav,1,b,naming,103,dentist,1051,correct,NA,Mar 29 2023 10:46:05,Pam,1
62a12,62a12_session1_listb_naming_trial104_jar.wav,1,b,naming,104,jar,934,correct,NA,Mar 29 2023 10:46:29,Pam,1
62a12,62a12_session1_listb_naming_trial105_skull.wav,1,b,naming,105,skull,696,correct,NA,Mar 29 2023 10:46:42,Pam,1
62a12,62a12_session1_listb_naming_trial106_cage.wav,1,b,naming,106,cage,903,correct,NA,Mar 29 2023 10:46:55,Pam,1
62a12,62a12_session1_listb_naming_trial107_coffin.wav,1,b,naming,107,coffin,898,correct,NA,Mar 29 2023 10:47:31,Pam,1
62a12,62a12_session1_listb_naming_trial108_cigarette.wav,1,b,naming,108,cigarette,754,correct,NA,Mar 29 2023 10:47:43,Pam,1
62a12,62a12_session1_listb_naming_trial109_fruit.wav,1,b,naming,109,fruit,1001,correct,NA,Mar 29 2023 10:47:57,Pam,1
62a12,62a12_session1_listb_naming_trial110_eye.wav,1,b,naming,110,eye,885,correct,NA,Mar 29 2023 10:48:12,Pam,1
62a12,62a12_session1_listb_naming_trial111_giraffe.wav,1,b,naming,111,giraffe,736,correct,NA,Mar 29 2023 10:48:35,Pam,1
62a12,62a12_session1_listb_naming_trial112_elephant.wav,1,b,naming,112,elephant,812,correct,NA,Mar 29 2023 10:48:48,Pam,1
62a12,62a12_session1_listb_naming_trial113_sink.wav,1,b,naming,113,sink,672,correct,NA,Mar 29 2023 10:49:01,Pam,1
62a12,62a12_session1_listb_naming_trial114_boomerang.wav,1,b,naming,114,boomerang,996,correct,NA,Mar 29 2023 10:49:14,Pam,1
62a12,62a12_session1_listb_naming_trial115_house.wav,1,b,naming,115,house,959,correct,NA,Mar 29 2023 10:49:24,Pam,1
62a12,62a12_session1_listb_naming_trial116_balloon.wav,1,b,naming,116,balloon,786,correct,NA,Mar 29 2023 10:49:36,Pam,1
62a12,62a12_session1_listb_naming_trial117_bat.wav,1,b,naming,117,bat,851,correct,NA,Mar 29 2023 10:51:03,Pam,1
62a12,62a12_session1_listb_naming_trial118_baby.wav,1,b,naming,118,baby,892,correct,NA,Mar 29 2023 10:51:18,Pam,1
62a12,62a12_session1_listb_naming_trial119_bra.wav,1,b,naming,119,bra,788,correct,NA,Mar 29 2023 10:51:33,Pam,1
62a12,62a12_session1_listb_naming_trial120_lizard.wav,1,b,naming,120,lizard,792,correct,NA,Mar 29 2023 10:51:46,Pam,1
62a12,62a12_session1_listb_naming_trial121_sock.wav,1,b,naming,121,sock,744,correct,NA,Mar 29 2023 10:52:00,Pam,1
62a12,62a12_session1_listb_naming_trial122_chair.wav,1,b,naming,122,chair,765,correct,NA,Mar 29 2023 10:52:24,Pam,1
62a12,62a12_session1_listb_naming_trial123_handle.wav,1,b,naming,123,handle,982,correct,NA,Mar 29 2023 10:52:41,Pam,1
62a12,62a12_session1_listb_naming_trial124_burger.wav,1,b,naming,124,burger,933,correct,NA,Mar 29 2023 10:52:55,Pam,1
62a12,62a12_session1_listb_naming_trial125_road.wav,1,b,naming,125,road,813,correct,NA,Mar 29 2023 10:53:11,Pam,1
62a12,62a12_session1_listb_naming_trial126_button.wav,1,b,naming,126,button,1082,correct,NA,Mar 29 2023 10:53:27,Pam,1
62a12,62a12_session1_listb_naming_trial127_beard.wav,1,b,naming,127,beard,1114,correct,NA,Mar 29 2023 10:53:39,Pam,1
62a12,62a12_session1_listb_naming_trial128_bible.wav,1,b,naming,128,bible,990,correct,NA,Mar 29 2023 10:53:56,Pam,1
62a12,62a12_session1_listb_naming_trial129_coffee.wav,1,b,naming,129,coffee,986,correct,NA,Mar 29 2023 10:54:13,Pam,1
62a12,62a12_session1_listb_naming_trial130_football.wav,1,b,naming,130,football,755,correct,NA,Mar 29 2023 10:54:26,Pam,1
62a12,62a12_session1_listb_naming_trial131_airport.wav,1,b,naming,131,airport,1181,correct,NA,Mar 29 2023 10:54:45,Pam,1
62a12,62a12_session1_listb_naming_trial132_bedroom.wav,1,b,naming,132,bedroom,1843,correct,NA,Mar 29 2023 10:54:59,Pam,1
62a12,62a12_session1_listb_naming_trial133_hair.wav,1,b,naming,133,hair,1222,correct,NA,Mar 29 2023 10:55:15,Pam,1
62a12,62a12_session1_listb_naming_trial134_feather.wav,1,b,naming,134,feather,912,correct,NA,Mar 29 2023 10:55:36,Pam,1
62a12,62a12_session1_listb_naming_trial135_volcano.wav,1,b,naming,135,volcano,902,correct,NA,Mar 29 2023 10:55:50,Pam,1
62a12,62a12_session1_listb_naming_trial136_girl.wav,1,b,naming,136,girl,814,correct,NA,Mar 29 2023 10:56:04,Pam,1
62a12,62a12_session1_listb_naming_trial137_dog.wav,1,b,naming,137,dog,843,correct,NA,Mar 29 2023 10:56:20,Pam,1
62a12,62a12_session1_listb_naming_trial138_calculator.wav,1,b,naming,138,calculator,748,correct,NA,Mar 29 2023 10:56:37,Pam,1
62a12,62a12_session1_listb_naming_trial139_cowboy.wav,1,b,naming,139,cowboy,812,correct,NA,Mar 29 2023 10:56:51,Pam,1
62a12,62a12_session1_listb_naming_trial140_watch.wav,1,b,naming,140,watch,784,correct,NA,Mar 29 2023 10:57:06,Pam,1
62a12,62a12_session1_listb_naming_trial141_butcher.wav,1,b,naming,141,butcher,1001,correct,NA,Mar 29 2023 10:57:20,Pam,1
62a12,62a12_session1_listb_naming_trial142_bed.wav,1,b,naming,142,bed,910,correct,NA,Mar 29 2023 10:57:41,Pam,1
62a12,62a12_session1_listb_naming_trial143_vein.wav,1,b,naming,143,vein,885,correct,NA,Mar 29 2023 10:57:56,Pam,1
62a12,62a12_session1_listb_naming_trial144_keyboard.wav,1,b,naming,144,keyboard,820,correct,NA,Mar 29 2023 10:58:10,Pam,1
62a12,62a12_session1_listb_naming_trial145_bin.wav,1,b,naming,145,bin,858,correct,NA,Mar 29 2023 10:58:47,Pam,1
62a12,62a12_session1_listb_naming_trial146_stapler.wav,1,b,naming,146,stapler,691,correct,NA,Mar 29 2023 10:59:01,Pam,1
62a12,62a12_session1_listb_naming_trial147_mirror.wav,1,b,naming,147,mirror,760,correct,NA,Mar 29 2023 10:59:22,Pam,1
62a12,62a12_session1_listb_naming_trial148_cactus.wav,1,b,naming,148,cactus,801,correct,NA,Mar 29 2023 10:59:35,Pam,1
62a12,62a12_session1_listb_naming_trial149_glass.wav,1,b,naming,149,glass,949,correct,NA,Mar 29 2023 10:59:50,Pam,1
62a12,62a12_session1_listb_naming_trial150_heart.wav,1,b,naming,150,heart,873,correct,NA,Mar 29 2023 11:00:09,Pam,1
