Participant_ID,File_Name,Session,List,Type_Trial,Trial_Nbr,Target,RT,Response_Trial,Comment,Date_Correction,Assessor_Name,Processed
62c5e,62c5e_session1_listb_naming_trial001_scorpion.wav,1,b,naming,1,scorpion,1103,correct,NA,Feb 14 2023 10:03:57,Agnieszka,1
62c5e,62c5e_session1_listb_naming_trial002_torch.wav,1,b,naming,2,torch,699,correct,NA,Feb 14 2023 10:04:04,Agnieszka,1
62c5e,62c5e_session1_listb_naming_trial003_heart.wav,1,b,naming,3,heart,711,correct,NA,Feb 14 2023 10:04:14,Agnieszka,1
62c5e,62c5e_session1_listb_naming_trial004_car.wav,1,b,naming,4,car,868,correct,NA,Feb 14 2023 10:04:34,Agnieszka,1
62c5e,62c5e_session1_listb_naming_trial005_maze.wav,1,b,naming,5,maze,861,correct,NA,Feb 14 2023 10:04:42,Agnieszka,1
62c5e,62c5e_session1_listb_naming_trial006_microphone.wav,1,b,naming,6,microphone,1093,correct,NA,Feb 14 2023 10:05:11,Agnieszka,1
62c5e,62c5e_session1_listb_naming_trial007_leaf.wav,1,b,naming,7,leaf,782,correct,NA,Feb 14 2023 10:05:18,Agnieszka,1
62c5e,62c5e_session1_listb_naming_trial008_glasses.wav,1,b,naming,8,glasses,816,correct,NA,Feb 14 2023 10:05:39,Agnieszka,1
62c5e,62c5e_session1_listb_naming_trial009_calendar.wav,1,b,naming,9,calendar,832,correct,NA,Feb 14 2023 10:05:52,Agnieszka,1
62c5e,62c5e_session1_listb_naming_trial010_foot.wav,1,b,naming,10,foot,785,correct,NA,Feb 14 2023 10:14:20,Agnieszka,1
62c5e,62c5e_session1_listb_naming_trial011_dragon.wav,1,b,naming,11,dragon,928,correct,NA,Feb 14 2023 10:14:35,Agnieszka,1
62c5e,62c5e_session1_listb_naming_trial012_shadow.wav,1,b,naming,12,shadow,969,correct,NA,Feb 14 2023 10:15:30,Agnieszka,1
62c5e,62c5e_session1_listb_naming_trial013_gun.wav,1,b,naming,13,gun,992,correct,NA,Feb 14 2023 10:15:46,Agnieszka,1
62c5e,62c5e_session1_listb_naming_trial014_crown.wav,1,b,naming,14,crown,931,correct,NA,Feb 14 2023 10:15:59,Agnieszka,1
62c5e,62c5e_session1_listb_naming_trial015_volcano.wav,1,b,naming,15,volcano,904,correct,NA,Feb 14 2023 10:16:14,Agnieszka,1
62c5e,62c5e_session1_listb_naming_trial016_sheep.wav,1,b,naming,16,sheep,766,correct,NA,Feb 14 2023 10:16:37,Agnieszka,1
62c5e,62c5e_session1_listb_naming_trial017_chair.wav,1,b,naming,17,chair,750,correct,NA,Feb 14 2023 10:16:47,Agnieszka,1
62c5e,62c5e_session1_listb_naming_trial018_camera.wav,1,b,naming,18,camera,861,correct,NA,Feb 14 2023 10:16:58,Agnieszka,1
62c5e,62c5e_session1_listb_naming_trial019_coconut.wav,1,b,naming,19,coconut,778,correct,NA,Feb 14 2023 10:17:09,Agnieszka,1
62c5e,62c5e_session1_listb_naming_trial020_finger.wav,1,b,naming,20,finger,887,correct,NA,Feb 14 2023 10:17:25,Agnieszka,1
62c5e,62c5e_session1_listb_naming_trial021_witch.wav,1,b,naming,21,witch,896,correct,NA,Feb 14 2023 10:17:36,Agnieszka,1
62c5e,62c5e_session1_listb_naming_trial022_hedgehog.wav,1,b,naming,22,hedgehog,835,correct,NA,Feb 14 2023 10:20:27,Agnieszka,1
62c5e,62c5e_session1_listb_naming_trial023_banana.wav,1,b,naming,23,banana,750,correct,NA,Feb 14 2023 10:20:59,Agnieszka,1
62c5e,62c5e_session1_listb_naming_trial024_hair.wav,1,b,naming,24,hair,813,correct,NA,Feb 14 2023 10:21:20,Agnieszka,1
62c5e,62c5e_session1_listb_naming_trial025_farm.wav,1,b,naming,25,farm,1189,correct,NA,Feb 14 2023 10:21:33,Agnieszka,1
62c5e,62c5e_session1_listb_naming_trial026_shark.wav,1,b,naming,26,shark,836,correct,NA,Feb 14 2023 10:21:42,Agnieszka,1
62c5e,62c5e_session1_listb_naming_trial027_waiter.wav,1,b,naming,27,waiter,1113,correct,NA,Feb 14 2023 10:21:51,Agnieszka,1
62c5e,62c5e_session1_listb_naming_trial028_tooth.wav,1,b,naming,28,tooth,1125,correct,NA,Feb 14 2023 10:21:59,Agnieszka,1
62c5e,62c5e_session1_listb_naming_trial029_spider.wav,1,b,naming,29,spider,794,correct,NA,Feb 14 2023 10:22:07,Agnieszka,1
62c5e,62c5e_session1_listb_naming_trial030_face.wav,1,b,naming,30,face,899,correct,NA,Feb 14 2023 10:22:22,Agnieszka,1
62c5e,62c5e_session1_listb_naming_trial031_dinosaur.wav,1,b,naming,31,dinosaur,1128,correct,NA,Feb 14 2023 10:22:31,Agnieszka,1
62c5e,62c5e_session1_listb_naming_trial032_mask.wav,1,b,naming,32,mask,1030,correct,NA,Feb 14 2023 10:22:38,Agnieszka,1
62c5e,62c5e_session1_listb_naming_trial033_king.wav,1,b,naming,33,king,1307,correct,NA,Feb 14 2023 10:22:46,Agnieszka,1
62c5e,62c5e_session1_listb_naming_trial034_coffin.wav,1,b,naming,34,coffin,871,correct,NA,Feb 14 2023 10:22:55,Agnieszka,1
62c5e,62c5e_session1_listb_naming_trial035_glass.wav,1,b,naming,35,glass,804,correct,NA,Feb 14 2023 10:23:05,Agnieszka,1
62c5e,62c5e_session1_listb_naming_trial036_harp.wav,1,b,naming,36,harp,836,correct,NA,Feb 14 2023 10:23:19,Agnieszka,1
62c5e,62c5e_session1_listb_naming_trial037_button.wav,1,b,naming,37,button,829,correct,NA,Feb 14 2023 10:23:51,Agnieszka,1
62c5e,62c5e_session1_listb_naming_trial038_snail.wav,1,b,naming,38,snail,782,correct,NA,Feb 14 2023 10:24:02,Agnieszka,1
62c5e,62c5e_session1_listb_naming_trial039_pool.wav,1,b,naming,39,pool,-1,wrong_word,NA,Feb 14 2023 10:24:19,Agnieszka,1
62c5e,62c5e_session1_listb_naming_trial040_sock.wav,1,b,naming,40,sock,832,correct,NA,Feb 14 2023 10:24:26,Agnieszka,1
62c5e,62c5e_session1_listb_naming_trial041_wallet.wav,1,b,naming,41,wallet,896,correct,NA,Feb 14 2023 10:24:35,Agnieszka,1
62c5e,62c5e_session1_listb_naming_trial042_pumpkin.wav,1,b,naming,42,pumpkin,734,correct,NA,Feb 14 2023 10:24:43,Agnieszka,1
62c5e,62c5e_session1_listb_naming_trial043_house.wav,1,b,naming,43,house,775,correct,NA,Feb 14 2023 10:24:51,Agnieszka,1
62c5e,62c5e_session1_listb_naming_trial044_printer.wav,1,b,naming,44,printer,938,correct,NA,Feb 14 2023 10:25:00,Agnieszka,1
62c5e,62c5e_session1_listb_naming_trial045_feather.wav,1,b,naming,45,feather,762,correct,NA,Feb 14 2023 10:25:19,Agnieszka,1
62c5e,62c5e_session1_listb_naming_trial046_cowboy.wav,1,b,naming,46,cowboy,1543,correct,NA,Feb 14 2023 10:25:32,Agnieszka,1
62c5e,62c5e_session1_listb_naming_trial047_well.wav,1,b,naming,47,well,966,correct,NA,Feb 14 2023 10:25:41,Agnieszka,1
62c5e,62c5e_session1_listb_naming_trial048_scarf.wav,1,b,naming,48,scarf,851,correct,NA,Feb 14 2023 10:25:50,Agnieszka,1
62c5e,62c5e_session1_listb_naming_trial049_calculator.wav,1,b,naming,49,calculator,804,correct,NA,Feb 14 2023 10:26:04,Agnieszka,1
62c5e,62c5e_session1_listb_naming_trial050_lizard.wav,1,b,naming,50,lizard,880,correct,NA,Feb 14 2023 10:26:11,Agnieszka,1
62c5e,62c5e_session1_listb_naming_trial051_door.wav,1,b,naming,51,door,848,correct,NA,Feb 14 2023 10:26:18,Agnieszka,1
62c5e,62c5e_session1_listb_naming_trial052_pizza.wav,1,b,naming,52,pizza,992,correct,NA,Feb 14 2023 10:26:25,Agnieszka,1
62c5e,62c5e_session1_listb_naming_trial053_penguin.wav,1,b,naming,53,penguin,842,correct,NA,Feb 14 2023 10:26:33,Agnieszka,1
62c5e,62c5e_session1_listb_naming_trial054_football.wav,1,b,naming,54,football,731,correct,NA,Feb 14 2023 10:26:42,Agnieszka,1
62c5e,62c5e_session1_listb_naming_trial055_fan.wav,1,b,naming,55,fan,887,correct,NA,Feb 14 2023 10:27:21,Agnieszka,1
62c5e,62c5e_session1_listb_naming_trial056_handle.wav,1,b,naming,56,handle,1049,correct,NA,Feb 14 2023 10:27:34,Agnieszka,1
62c5e,62c5e_session1_listb_naming_trial057_cone.wav,1,b,naming,57,cone,855,correct,NA,Feb 14 2023 10:27:42,Agnieszka,1
62c5e,62c5e_session1_listb_naming_trial058_girl.wav,1,b,naming,58,girl,861,correct,NA,Feb 14 2023 10:27:49,Agnieszka,1
62c5e,62c5e_session1_listb_naming_trial059_ankle.wav,1,b,naming,59,ankle,-1,wrong_word,NA,Feb 14 2023 10:27:55,Agnieszka,1
62c5e,62c5e_session1_listb_naming_trial060_cloud.wav,1,b,naming,60,cloud,1361,correct,NA,Feb 14 2023 10:28:03,Agnieszka,1
62c5e,62c5e_session1_listb_naming_trial061_cactus.wav,1,b,naming,61,cactus,966,correct,NA,Feb 14 2023 10:28:15,Agnieszka,1
62c5e,62c5e_session1_listb_naming_trial062_knee.wav,1,b,naming,62,knee,954,correct,NA,Feb 14 2023 10:28:24,Agnieszka,1
62c5e,62c5e_session1_listb_naming_trial063_caravan.wav,1,b,naming,63,caravan,890,correct,NA,Feb 14 2023 10:28:38,Agnieszka,1
62c5e,62c5e_session1_listb_naming_trial064_duck.wav,1,b,naming,64,duck,903,correct,NA,Feb 14 2023 10:28:45,Agnieszka,1
62c5e,62c5e_session1_listb_naming_trial065_eye.wav,1,b,naming,65,eye,1052,correct,NA,Feb 14 2023 10:28:56,Agnieszka,1
62c5e,62c5e_session1_listb_naming_trial066_umbrella.wav,1,b,naming,66,umbrella,966,correct,NA,Feb 14 2023 10:29:03,Agnieszka,1
62c5e,62c5e_session1_listb_naming_trial067_coffee.wav,1,b,naming,67,coffee,995,correct,NA,Feb 14 2023 10:29:18,Agnieszka,1
62c5e,62c5e_session1_listb_naming_trial068_apron.wav,1,b,naming,68,apron,893,correct,NA,Feb 14 2023 10:29:27,Agnieszka,1
62c5e,62c5e_session1_listb_naming_trial069_ring.wav,1,b,naming,69,ring,766,correct,NA,Feb 14 2023 10:31:19,Agnieszka,1
62c5e,62c5e_session1_listb_naming_trial070_bed.wav,1,b,naming,70,bed,820,correct,NA,Feb 14 2023 10:31:30,Agnieszka,1
62c5e,62c5e_session1_listb_naming_trial071_honey.wav,1,b,naming,71,honey,852,correct,NA,Feb 14 2023 10:31:43,Agnieszka,1
62c5e,62c5e_session1_listb_naming_trial072_ambulance.wav,1,b,naming,72,ambulance,782,correct,NA,Feb 14 2023 10:31:56,Agnieszka,1
62c5e,62c5e_session1_listb_naming_trial073_lemon.wav,1,b,naming,73,lemon,822,correct,NA,Feb 14 2023 10:32:03,Agnieszka,1
62c5e,62c5e_session1_listb_naming_trial074_nun.wav,1,b,naming,74,nun,925,correct,NA,Feb 14 2023 10:32:12,Agnieszka,1
62c5e,62c5e_session1_listb_naming_trial075_burger.wav,1,b,naming,75,burger,883,correct,NA,Feb 14 2023 10:32:27,Agnieszka,1
62c5e,62c5e_session1_listb_naming_trial076_boomerang.wav,1,b,naming,76,boomerang,887,correct,NA,Feb 14 2023 10:32:34,Agnieszka,1
62c5e,62c5e_session1_listb_naming_trial077_chain.wav,1,b,naming,77,chain,880,correct,NA,Feb 14 2023 10:32:51,Agnieszka,1
62c5e,62c5e_session1_listb_naming_trial078_dentist.wav,1,b,naming,78,dentist,982,correct,NA,Feb 14 2023 10:33:02,Agnieszka,1
62c5e,62c5e_session1_listb_naming_trial079_beard.wav,1,b,naming,79,beard,963,correct,NA,Feb 14 2023 10:33:09,Agnieszka,1
62c5e,62c5e_session1_listb_naming_trial080_mirror.wav,1,b,naming,80,mirror,797,correct,NA,Feb 14 2023 10:33:17,Agnieszka,1
62c5e,62c5e_session1_listb_naming_trial081_hand.wav,1,b,naming,81,hand,1113,correct,NA,Feb 14 2023 10:33:24,Agnieszka,1
62c5e,62c5e_session1_listb_naming_trial082_earring.wav,1,b,naming,82,earring,1514,correct,NA,Feb 14 2023 10:33:32,Agnieszka,1
62c5e,62c5e_session1_listb_naming_trial083_screwdriver.wav,1,b,naming,83,screwdriver,1183,correct,NA,Feb 14 2023 10:33:44,Agnieszka,1
62c5e,62c5e_session1_listb_naming_trial084_brain.wav,1,b,naming,84,brain,954,correct,NA,Feb 14 2023 10:33:52,Agnieszka,1
62c5e,62c5e_session1_listb_naming_trial085_skull.wav,1,b,naming,85,skull,855,correct,NA,Feb 14 2023 10:34:01,Agnieszka,1
62c5e,62c5e_session1_listb_naming_trial086_bedroom.wav,1,b,naming,86,bedroom,1126,correct,NA,Feb 14 2023 10:34:10,Agnieszka,1
62c5e,62c5e_session1_listb_naming_trial087_telephone.wav,1,b,naming,87,telephone,941,correct,NA,Feb 14 2023 10:34:20,Agnieszka,1
62c5e,62c5e_session1_listb_naming_trial088_pilot.wav,1,b,naming,88,pilot,1110,correct,NA,Feb 14 2023 10:34:28,Agnieszka,1
62c5e,62c5e_session1_listb_naming_trial089_lion.wav,1,b,naming,89,lion,888,correct,NA,Feb 14 2023 10:34:35,Agnieszka,1
62c5e,62c5e_session1_listb_naming_trial090_swimming.wav,1,b,naming,90,swimming,-1,disfluency,NA,Feb 14 2023 10:34:57,Agnieszka,1
62c5e,62c5e_session1_listb_naming_trial091_devil.wav,1,b,naming,91,devil,1090,correct,NA,Feb 14 2023 10:35:05,Agnieszka,1
62c5e,62c5e_session1_listb_naming_trial092_shirt.wav,1,b,naming,92,shirt,874,correct,NA,Feb 14 2023 10:35:15,Agnieszka,1
62c5e,62c5e_session1_listb_naming_trial093_fruit.wav,1,b,naming,93,fruit,772,correct,NA,Feb 14 2023 10:35:23,Agnieszka,1
62c5e,62c5e_session1_listb_naming_trial094_parrot.wav,1,b,naming,94,parrot,817,correct,NA,Feb 14 2023 10:35:31,Agnieszka,1
62c5e,62c5e_session1_listb_naming_trial095_baby.wav,1,b,naming,95,baby,769,correct,NA,Feb 14 2023 10:35:39,Agnieszka,1
62c5e,62c5e_session1_listb_naming_trial096_asparagus.wav,1,b,naming,96,asparagus,1272,correct,NA,Feb 14 2023 10:35:48,Agnieszka,1
62c5e,62c5e_session1_listb_naming_trial097_bra.wav,1,b,naming,97,bra,909,correct,NA,Feb 14 2023 10:35:55,Agnieszka,1
62c5e,62c5e_session1_listb_naming_trial098_choir.wav,1,b,naming,98,choir,1361,correct,NA,Feb 14 2023 10:36:06,Agnieszka,1
62c5e,62c5e_session1_listb_naming_trial099_guitar.wav,1,b,naming,99,guitar,906,correct,NA,Feb 14 2023 10:36:16,Agnieszka,1
62c5e,62c5e_session1_listb_naming_trial100_stapler.wav,1,b,naming,100,stapler,842,correct,NA,Feb 14 2023 10:36:28,Agnieszka,1
62c5e,62c5e_session1_listb_naming_trial101_vein.wav,1,b,naming,101,vein,928,correct,NA,Feb 14 2023 10:36:37,Agnieszka,1
62c5e,62c5e_session1_listb_naming_trial102_needle.wav,1,b,naming,102,needle,934,correct,NA,Feb 14 2023 10:36:43,Agnieszka,1
62c5e,62c5e_session1_listb_naming_trial103_watch.wav,1,b,naming,103,watch,766,correct,NA,Feb 14 2023 10:36:51,Agnieszka,1
62c5e,62c5e_session1_listb_naming_trial104_scarecrow.wav,1,b,naming,104,scarecrow,903,correct,NA,Feb 14 2023 11:06:14,Agnieszka,1
62c5e,62c5e_session1_listb_naming_trial105_nurse.wav,1,b,naming,105,nurse,944,correct,NA,Feb 14 2023 11:06:27,Agnieszka,1
62c5e,62c5e_session1_listb_naming_trial106_road.wav,1,b,naming,106,road,868,correct,NA,Feb 14 2023 11:07:39,Agnieszka,1
62c5e,62c5e_session1_listb_naming_trial107_giraffe.wav,1,b,naming,107,giraffe,794,correct,NA,Feb 14 2023 11:07:52,Agnieszka,1
62c5e,62c5e_session1_listb_naming_trial108_strawberry.wav,1,b,naming,108,strawberry,826,correct,NA,Feb 14 2023 11:08:09,Agnieszka,1
62c5e,62c5e_session1_listb_naming_trial109_skeleton.wav,1,b,naming,109,skeleton,839,correct,NA,Feb 14 2023 11:08:20,Agnieszka,1
62c5e,62c5e_session1_listb_naming_trial110_thermometer.wav,1,b,naming,110,thermometer,1046,correct,NA,Feb 14 2023 11:08:38,Agnieszka,1
62c5e,62c5e_session1_listb_naming_trial111_diamond.wav,1,b,naming,111,diamond,852,correct,NA,Feb 14 2023 11:08:46,Agnieszka,1
62c5e,62c5e_session1_listb_naming_trial112_keyboard.wav,1,b,naming,112,keyboard,1399,correct,NA,Feb 14 2023 11:08:55,Agnieszka,1
62c5e,62c5e_session1_listb_naming_trial113_jar.wav,1,b,naming,113,jar,887,correct,NA,Feb 14 2023 11:09:05,Agnieszka,1
62c5e,62c5e_session1_listb_naming_trial114_dog.wav,1,b,naming,114,dog,1447,correct,NA,Feb 14 2023 11:09:12,Agnieszka,1
62c5e,62c5e_session1_listb_naming_trial115_condom.wav,1,b,naming,115,condom,1059,correct,NA,Feb 14 2023 11:09:31,Agnieszka,1
62c5e,62c5e_session1_listb_naming_trial116_back.wav,1,b,naming,116,back,931,correct,NA,Feb 14 2023 11:09:40,Agnieszka,1
62c5e,62c5e_session1_listb_naming_trial117_pirate.wav,1,b,naming,117,pirate,969,correct,NA,Feb 14 2023 11:12:08,Agnieszka,1
62c5e,62c5e_session1_listb_naming_trial118_bin.wav,1,b,naming,118,bin,995,correct,NA,Feb 14 2023 11:12:16,Agnieszka,1
62c5e,62c5e_session1_listb_naming_trial119_airport.wav,1,b,naming,119,airport,1227,correct,NA,Feb 14 2023 11:12:26,Agnieszka,1
62c5e,62c5e_session1_listb_naming_trial120_cannon.wav,1,b,naming,120,cannon,1097,correct,NA,Feb 14 2023 11:12:40,Agnieszka,1
62c5e,62c5e_session1_listb_naming_trial121_fist.wav,1,b,naming,121,fist,915,correct,NA,Feb 14 2023 11:12:50,Agnieszka,1
62c5e,62c5e_session1_listb_naming_trial122_fire.wav,1,b,naming,122,fire,782,correct,NA,Feb 14 2023 11:12:57,Agnieszka,1
62c5e,62c5e_session1_listb_naming_trial123_iron.wav,1,b,naming,123,iron,1043,correct,NA,Feb 14 2023 11:13:07,Agnieszka,1
62c5e,62c5e_session1_listb_naming_trial124_cigarette.wav,1,b,naming,124,cigarette,-1,wrong_word,NA,Feb 14 2023 11:13:14,Agnieszka,1
62c5e,62c5e_session1_listb_naming_trial125_television.wav,1,b,naming,125,television,-1,wrong_word,NA,Feb 14 2023 11:13:20,Agnieszka,1
62c5e,62c5e_session1_listb_naming_trial126_lab.wav,1,b,naming,126,lab,2205,correct,NA,Feb 14 2023 11:13:28,Agnieszka,1
62c5e,62c5e_session1_listb_naming_trial127_cage.wav,1,b,naming,127,cage,1237,correct,NA,Feb 14 2023 11:13:35,Agnieszka,1
62c5e,62c5e_session1_listb_naming_trial128_sink.wav,1,b,naming,128,sink,976,correct,NA,Feb 14 2023 11:14:52,Agnieszka,1
62c5e,62c5e_session1_listb_naming_trial129_roof.wav,1,b,naming,129,roof,1396,correct,NA,Feb 14 2023 11:15:01,Agnieszka,1
62c5e,62c5e_session1_listb_naming_trial130_parachute.wav,1,b,naming,130,parachute,1415,correct,NA,Feb 14 2023 11:15:08,Agnieszka,1
62c5e,62c5e_session1_listb_naming_trial131_elephant.wav,1,b,naming,131,elephant,899,correct,NA,Feb 14 2023 11:15:19,Agnieszka,1
62c5e,62c5e_session1_listb_naming_trial132_desert.wav,1,b,naming,132,desert,1333,correct,NA,Feb 14 2023 11:15:26,Agnieszka,1
62c5e,62c5e_session1_listb_naming_trial133_bible.wav,1,b,naming,133,bible,893,correct,NA,Feb 14 2023 11:15:43,Agnieszka,1
62c5e,62c5e_session1_listb_naming_trial134_balloon.wav,1,b,naming,134,balloon,1113,correct,NA,Feb 14 2023 11:15:54,Agnieszka,1
62c5e,62c5e_session1_listb_naming_trial135_broom.wav,1,b,naming,135,broom,-1,wrong_word,NA,Feb 14 2023 11:16:00,Agnieszka,1
62c5e,62c5e_session1_listb_naming_trial136_tank.wav,1,b,naming,136,tank,979,correct,NA,Feb 14 2023 11:16:11,Agnieszka,1
62c5e,62c5e_session1_listb_naming_trial137_spoon.wav,1,b,naming,137,spoon,794,correct,NA,Feb 14 2023 11:16:24,Agnieszka,1
62c5e,62c5e_session1_listb_naming_trial138_belt.wav,1,b,naming,138,belt,871,correct,NA,Feb 14 2023 11:16:32,Agnieszka,1
62c5e,62c5e_session1_listb_naming_trial139_butcher.wav,1,b,naming,139,butcher,931,correct,NA,Feb 14 2023 11:16:41,Agnieszka,1
62c5e,62c5e_session1_listb_naming_trial140_dolphin.wav,1,b,naming,140,dolphin,928,correct,NA,Feb 14 2023 11:16:50,Agnieszka,1
62c5e,62c5e_session1_listb_naming_trial141_moustache.wav,1,b,naming,141,moustache,845,correct,NA,Feb 14 2023 11:16:58,Agnieszka,1
62c5e,62c5e_session1_listb_naming_trial142_frog.wav,1,b,naming,142,frog,842,correct,NA,Feb 14 2023 11:17:21,Agnieszka,1
62c5e,62c5e_session1_listb_naming_trial143_egg.wav,1,b,naming,143,egg,1313,correct,NA,Feb 14 2023 11:17:29,Agnieszka,1
62c5e,62c5e_session1_listb_naming_trial144_greenhouse.wav,1,b,naming,144,greenhouse,1482,correct,NA,Feb 14 2023 11:18:07,Agnieszka,1
62c5e,62c5e_session1_listb_naming_trial145_nose.wav,1,b,naming,145,nose,931,correct,NA,Feb 14 2023 11:18:17,Agnieszka,1
62c5e,62c5e_session1_listb_naming_trial146_man.wav,1,b,naming,146,man,1355,correct,NA,Feb 14 2023 11:18:31,Agnieszka,1
62c5e,62c5e_session1_listb_naming_trial147_broccoli.wav,1,b,naming,147,broccoli,1153,correct,NA,Feb 14 2023 11:18:39,Agnieszka,1
62c5e,62c5e_session1_listb_naming_trial148_bat.wav,1,b,naming,148,bat,858,correct,NA,Feb 14 2023 11:18:47,Agnieszka,1
62c5e,62c5e_session1_listb_naming_trial149_trumpet.wav,1,b,naming,149,trumpet,1562,correct,NA,Feb 14 2023 11:19:03,Agnieszka,1
62c5e,62c5e_session1_listb_naming_trial150_skateboard.wav,1,b,naming,150,skateboard,845,correct,NA,Feb 14 2023 11:19:16,Agnieszka,1
