Participant_ID,File_Name,Session,List,Type_Trial,Trial_Nbr,Target,RT,Response_Trial,Comment,Date_Correction,Assessor_Name,Processed
5fdbb,5fdbb_session1_listb_naming_trial001_sock.wav,1,b,naming,1,sock,945,correct,NA,Jan 19 2023 10:41:37,Agnieszka,1
5fdbb,5fdbb_session1_listb_naming_trial002_balloon.wav,1,b,naming,2,balloon,891,correct,NA,Jan 19 2023 10:41:45,Agnieszka,1
5fdbb,5fdbb_session1_listb_naming_trial003_cowboy.wav,1,b,naming,3,cowboy,1031,correct,NA,Jan 19 2023 10:41:58,Agnieszka,1
5fdbb,5fdbb_session1_listb_naming_trial004_wallet.wav,1,b,naming,4,wallet,923,correct,NA,Jan 19 2023 10:42:06,Agnieszka,1
5fdbb,5fdbb_session1_listb_naming_trial005_swimming.wav,1,b,naming,5,swimming,917,correct,NA,Jan 19 2023 10:42:15,Agnieszka,1
5fdbb,5fdbb_session1_listb_naming_trial006_hedgehog.wav,1,b,naming,6,hedgehog,923,correct,NA,Jan 19 2023 10:42:23,Agnieszka,1
5fdbb,5fdbb_session1_listb_naming_trial007_chair.wav,1,b,naming,7,chair,816,correct,NA,Jan 19 2023 10:42:34,Agnieszka,1
5fdbb,5fdbb_session1_listb_naming_trial008_sheep.wav,1,b,naming,8,sheep,813,correct,NA,Jan 19 2023 10:42:49,Agnieszka,1
5fdbb,5fdbb_session1_listb_naming_trial009_bin.wav,1,b,naming,9,bin,882,correct,NA,Jan 19 2023 10:42:56,Agnieszka,1
5fdbb,5fdbb_session1_listb_naming_trial010_coffee.wav,1,b,naming,10,coffee,961,correct,NA,Jan 19 2023 10:43:03,Agnieszka,1
5fdbb,5fdbb_session1_listb_naming_trial011_umbrella.wav,1,b,naming,11,umbrella,885,correct,NA,Jan 19 2023 10:43:10,Agnieszka,1
5fdbb,5fdbb_session1_listb_naming_trial012_jar.wav,1,b,naming,12,jar,882,correct,NA,Jan 19 2023 10:43:19,Agnieszka,1
5fdbb,5fdbb_session1_listb_naming_trial013_pilot.wav,1,b,naming,13,pilot,932,correct,NA,Jan 19 2023 10:43:26,Agnieszka,1
5fdbb,5fdbb_session1_listb_naming_trial014_shadow.wav,1,b,naming,14,shadow,929,correct,NA,Jan 19 2023 10:43:33,Agnieszka,1
5fdbb,5fdbb_session1_listb_naming_trial015_telephone.wav,1,b,naming,15,telephone,879,correct,NA,Jan 19 2023 10:43:40,Agnieszka,1
5fdbb,5fdbb_session1_listb_naming_trial016_knee.wav,1,b,naming,16,knee,882,correct,NA,Jan 19 2023 10:43:51,Agnieszka,1
5fdbb,5fdbb_session1_listb_naming_trial017_strawberry.wav,1,b,naming,17,strawberry,837,correct,NA,Jan 19 2023 10:44:10,Agnieszka,1
5fdbb,5fdbb_session1_listb_naming_trial018_mirror.wav,1,b,naming,18,mirror,857,correct,NA,Jan 19 2023 10:44:21,Agnieszka,1
5fdbb,5fdbb_session1_listb_naming_trial019_guitar.wav,1,b,naming,19,guitar,885,correct,NA,Jan 19 2023 10:44:33,Agnieszka,1
5fdbb,5fdbb_session1_listb_naming_trial020_heart.wav,1,b,naming,20,heart,768,correct,NA,Jan 19 2023 10:44:42,Agnieszka,1
5fdbb,5fdbb_session1_listb_naming_trial021_lab.wav,1,b,naming,21,lab,1839,correct,NA,Jan 19 2023 10:44:51,Agnieszka,1
5fdbb,5fdbb_session1_listb_naming_trial022_camera.wav,1,b,naming,22,camera,860,correct,NA,Jan 19 2023 10:44:58,Agnieszka,1
5fdbb,5fdbb_session1_listb_naming_trial023_skull.wav,1,b,naming,23,skull,-1,disfluency,NA,Jan 19 2023 10:45:06,Agnieszka,1
5fdbb,5fdbb_session1_listb_naming_trial024_television.wav,1,b,naming,24,television,1079,correct,NA,Jan 19 2023 10:45:20,Agnieszka,1
5fdbb,5fdbb_session1_listb_naming_trial025_king.wav,1,b,naming,25,king,964,correct,NA,Jan 19 2023 10:45:28,Agnieszka,1
5fdbb,5fdbb_session1_listb_naming_trial026_vein.wav,1,b,naming,26,vein,1122,correct,NA,Jan 19 2023 10:45:36,Agnieszka,1
5fdbb,5fdbb_session1_listb_naming_trial027_broom.wav,1,b,naming,27,broom,977,correct,NA,Jan 19 2023 10:45:49,Agnieszka,1
5fdbb,5fdbb_session1_listb_naming_trial028_roof.wav,1,b,naming,28,roof,1241,correct,NA,Jan 19 2023 10:45:57,Agnieszka,1
5fdbb,5fdbb_session1_listb_naming_trial029_dragon.wav,1,b,naming,29,dragon,873,correct,NA,Jan 19 2023 10:46:04,Agnieszka,1
5fdbb,5fdbb_session1_listb_naming_trial030_back.wav,1,b,naming,30,back,1053,correct,NA,Jan 19 2023 10:46:11,Agnieszka,1
5fdbb,5fdbb_session1_listb_naming_trial031_devil.wav,1,b,naming,31,devil,860,correct,NA,Jan 19 2023 10:46:19,Agnieszka,1
5fdbb,5fdbb_session1_listb_naming_trial032_well.wav,1,b,naming,32,well,1012,correct,NA,Jan 19 2023 10:46:27,Agnieszka,1
5fdbb,5fdbb_session1_listb_naming_trial033_lizard.wav,1,b,naming,33,lizard,1603,correct,NA,Jan 19 2023 10:46:36,Agnieszka,1
5fdbb,5fdbb_session1_listb_naming_trial034_glass.wav,1,b,naming,34,glass,967,correct,NA,Jan 19 2023 10:46:43,Agnieszka,1
5fdbb,5fdbb_session1_listb_naming_trial035_shark.wav,1,b,naming,35,shark,1394,correct,NA,Jan 19 2023 10:46:50,Agnieszka,1
5fdbb,5fdbb_session1_listb_naming_trial036_skeleton.wav,1,b,naming,36,skeleton,914,correct,NA,Jan 19 2023 10:46:57,Agnieszka,1
5fdbb,5fdbb_session1_listb_naming_trial037_coconut.wav,1,b,naming,37,coconut,971,correct,NA,Jan 19 2023 10:47:06,Agnieszka,1
5fdbb,5fdbb_session1_listb_naming_trial038_finger.wav,1,b,naming,38,finger,1196,correct,NA,Jan 19 2023 10:47:12,Agnieszka,1
5fdbb,5fdbb_session1_listb_naming_trial039_tooth.wav,1,b,naming,39,tooth,1082,correct,NA,Jan 19 2023 10:47:20,Agnieszka,1
5fdbb,5fdbb_session1_listb_naming_trial040_pumpkin.wav,1,b,naming,40,pumpkin,879,correct,NA,Jan 19 2023 10:47:27,Agnieszka,1
5fdbb,5fdbb_session1_listb_naming_trial041_waiter.wav,1,b,naming,41,waiter,955,correct,NA,Jan 19 2023 10:47:48,Agnieszka,1
5fdbb,5fdbb_session1_listb_naming_trial042_trumpet.wav,1,b,naming,42,trumpet,1686,correct,NA,Jan 19 2023 10:47:57,Agnieszka,1
5fdbb,5fdbb_session1_listb_naming_trial043_butcher.wav,1,b,naming,43,butcher,1168,correct,NA,Jan 19 2023 10:48:05,Agnieszka,1
5fdbb,5fdbb_session1_listb_naming_trial044_baby.wav,1,b,naming,44,baby,866,correct,NA,Jan 19 2023 10:48:13,Agnieszka,1
5fdbb,5fdbb_session1_listb_naming_trial045_foot.wav,1,b,naming,45,foot,901,correct,NA,Jan 19 2023 10:48:21,Agnieszka,1
5fdbb,5fdbb_session1_listb_naming_trial046_girl.wav,1,b,naming,46,girl,913,correct,NA,Jan 19 2023 10:48:28,Agnieszka,1
5fdbb,5fdbb_session1_listb_naming_trial047_duck.wav,1,b,naming,47,duck,854,correct,NA,Jan 19 2023 10:48:36,Agnieszka,1
5fdbb,5fdbb_session1_listb_naming_trial048_door.wav,1,b,naming,48,door,891,correct,NA,Jan 19 2023 10:48:43,Agnieszka,1
5fdbb,5fdbb_session1_listb_naming_trial049_egg.wav,1,b,naming,49,egg,967,correct,NA,Jan 19 2023 10:48:51,Agnieszka,1
5fdbb,5fdbb_session1_listb_naming_trial050_skateboard.wav,1,b,naming,50,skateboard,879,correct,NA,Jan 19 2023 10:48:58,Agnieszka,1
5fdbb,5fdbb_session1_listb_naming_trial051_stapler.wav,1,b,naming,51,stapler,897,correct,NA,Jan 19 2023 10:49:11,Agnieszka,1
5fdbb,5fdbb_session1_listb_naming_trial052_watch.wav,1,b,naming,52,watch,894,correct,NA,Jan 19 2023 10:49:19,Agnieszka,1
5fdbb,5fdbb_session1_listb_naming_trial053_earring.wav,1,b,naming,53,earring,1037,correct,NA,Jan 19 2023 10:49:26,Agnieszka,1
5fdbb,5fdbb_session1_listb_naming_trial054_hand.wav,1,b,naming,54,hand,793,correct,NA,Jan 19 2023 10:49:38,Agnieszka,1
5fdbb,5fdbb_session1_listb_naming_trial055_spoon.wav,1,b,naming,55,spoon,869,correct,NA,Jan 19 2023 10:49:50,Agnieszka,1
5fdbb,5fdbb_session1_listb_naming_trial056_caravan.wav,1,b,naming,56,caravan,876,correct,NA,Jan 19 2023 10:49:59,Agnieszka,1
5fdbb,5fdbb_session1_listb_naming_trial057_elephant.wav,1,b,naming,57,elephant,828,correct,NA,Jan 19 2023 10:50:10,Agnieszka,1
5fdbb,5fdbb_session1_listb_naming_trial058_scorpion.wav,1,b,naming,58,scorpion,1409,correct,NA,Jan 19 2023 10:50:17,Agnieszka,1
5fdbb,5fdbb_session1_listb_naming_trial059_pizza.wav,1,b,naming,59,pizza,784,correct,NA,Jan 19 2023 10:50:26,Agnieszka,1
5fdbb,5fdbb_session1_listb_naming_trial060_broccoli.wav,1,b,naming,60,broccoli,850,correct,NA,Jan 19 2023 10:50:35,Agnieszka,1
5fdbb,5fdbb_session1_listb_naming_trial061_boomerang.wav,1,b,naming,61,boomerang,920,correct,NA,Jan 19 2023 10:50:42,Agnieszka,1
5fdbb,5fdbb_session1_listb_naming_trial062_volcano.wav,1,b,naming,62,volcano,989,correct,NA,Jan 19 2023 10:50:52,Agnieszka,1
5fdbb,5fdbb_session1_listb_naming_trial063_farm.wav,1,b,naming,63,farm,1149,correct,NA,Jan 19 2023 10:50:59,Agnieszka,1
5fdbb,5fdbb_session1_listb_naming_trial064_fan.wav,1,b,naming,64,fan,936,correct,NA,Jan 19 2023 10:51:05,Agnieszka,1
5fdbb,5fdbb_session1_listb_naming_trial065_parachute.wav,1,b,naming,65,parachute,1507,correct,NA,Jan 19 2023 10:51:13,Agnieszka,1
5fdbb,5fdbb_session1_listb_naming_trial066_scarecrow.wav,1,b,naming,66,scarecrow,1337,correct,NA,Jan 19 2023 10:51:21,Agnieszka,1
5fdbb,5fdbb_session1_listb_naming_trial067_belt.wav,1,b,naming,67,belt,873,correct,NA,Jan 19 2023 10:51:28,Agnieszka,1
5fdbb,5fdbb_session1_listb_naming_trial068_lemon.wav,1,b,naming,68,lemon,945,correct,NA,Jan 19 2023 10:51:35,Agnieszka,1
5fdbb,5fdbb_session1_listb_naming_trial069_cactus.wav,1,b,naming,69,cactus,853,correct,NA,Jan 19 2023 10:51:42,Agnieszka,1
5fdbb,5fdbb_session1_listb_naming_trial070_hair.wav,1,b,naming,70,hair,1390,correct,NA,Jan 19 2023 10:51:49,Agnieszka,1
5fdbb,5fdbb_session1_listb_naming_trial071_pirate.wav,1,b,naming,71,pirate,980,correct,NA,Jan 19 2023 10:51:56,Agnieszka,1
5fdbb,5fdbb_session1_listb_naming_trial072_glasses.wav,1,b,naming,72,glasses,971,correct,NA,Jan 19 2023 10:52:05,Agnieszka,1
5fdbb,5fdbb_session1_listb_naming_trial073_calculator.wav,1,b,naming,73,calculator,835,correct,NA,Jan 19 2023 10:52:12,Agnieszka,1
5fdbb,5fdbb_session1_listb_naming_trial074_brain.wav,1,b,naming,74,brain,1155,correct,NA,Jan 19 2023 10:52:19,Agnieszka,1
5fdbb,5fdbb_session1_listb_naming_trial075_dinosaur.wav,1,b,naming,75,dinosaur,1145,correct,NA,Jan 19 2023 10:52:26,Agnieszka,1
5fdbb,5fdbb_session1_listb_naming_trial076_house.wav,1,b,naming,76,house,838,correct,NA,Jan 19 2023 10:52:37,Agnieszka,1
5fdbb,5fdbb_session1_listb_naming_trial077_dog.wav,1,b,naming,77,dog,832,correct,NA,Jan 19 2023 10:52:55,Agnieszka,1
5fdbb,5fdbb_session1_listb_naming_trial078_fruit.wav,1,b,naming,78,fruit,-1,disfluency,NA,Jan 19 2023 10:53:16,Agnieszka,1
5fdbb,5fdbb_session1_listb_naming_trial079_dentist.wav,1,b,naming,79,dentist,1689,correct,NA,Jan 19 2023 10:53:23,Agnieszka,1
5fdbb,5fdbb_session1_listb_naming_trial080_lion.wav,1,b,naming,80,lion,1002,correct,NA,Jan 19 2023 10:53:31,Agnieszka,1
5fdbb,5fdbb_session1_listb_naming_trial081_cloud.wav,1,b,naming,81,cloud,1187,correct,NA,Jan 19 2023 10:53:38,Agnieszka,1
5fdbb,5fdbb_session1_listb_naming_trial082_crown.wav,1,b,naming,82,crown,1267,correct,NA,Jan 19 2023 10:53:49,Agnieszka,1
5fdbb,5fdbb_session1_listb_naming_trial083_airport.wav,1,b,naming,83,airport,1207,correct,NA,Jan 19 2023 10:53:55,Agnieszka,1
5fdbb,5fdbb_session1_listb_naming_trial084_coffin.wav,1,b,naming,84,coffin,-1,no_resp,NA,Jan 19 2023 10:54:09,Agnieszka,1
5fdbb,5fdbb_session1_listb_naming_trial085_button.wav,1,b,naming,85,button,1569,correct,NA,Jan 19 2023 10:54:21,Agnieszka,1
5fdbb,5fdbb_session1_listb_naming_trial086_moustache.wav,1,b,naming,86,moustache,1068,correct,NA,Jan 19 2023 10:54:28,Agnieszka,1
5fdbb,5fdbb_session1_listb_naming_trial087_tank.wav,1,b,naming,87,tank,939,correct,NA,Jan 19 2023 10:54:38,Agnieszka,1
5fdbb,5fdbb_session1_listb_naming_trial088_needle.wav,1,b,naming,88,needle,1012,correct,NA,Jan 19 2023 10:54:49,Agnieszka,1
5fdbb,5fdbb_session1_listb_naming_trial089_banana.wav,1,b,naming,89,banana,882,correct,NA,Jan 19 2023 10:54:57,Agnieszka,1
5fdbb,5fdbb_session1_listb_naming_trial090_cigarette.wav,1,b,naming,90,cigarette,958,correct,NA,Jan 19 2023 10:55:05,Agnieszka,1
5fdbb,5fdbb_session1_listb_naming_trial091_parrot.wav,1,b,naming,91,parrot,781,correct,NA,Jan 19 2023 10:55:13,Agnieszka,1
5fdbb,5fdbb_session1_listb_naming_trial092_bible.wav,1,b,naming,92,bible,1091,correct,NA,Jan 19 2023 10:55:19,Agnieszka,1
5fdbb,5fdbb_session1_listb_naming_trial093_calendar.wav,1,b,naming,93,calendar,955,correct,NA,Jan 19 2023 10:55:27,Agnieszka,1
5fdbb,5fdbb_session1_listb_naming_trial094_leaf.wav,1,b,naming,94,leaf,799,correct,NA,Jan 19 2023 10:55:35,Agnieszka,1
5fdbb,5fdbb_session1_listb_naming_trial095_burger.wav,1,b,naming,95,burger,799,correct,NA,Jan 19 2023 10:55:42,Agnieszka,1
5fdbb,5fdbb_session1_listb_naming_trial096_ring.wav,1,b,naming,96,ring,850,correct,NA,Jan 19 2023 10:55:50,Agnieszka,1
5fdbb,5fdbb_session1_listb_naming_trial097_sink.wav,1,b,naming,97,sink,913,correct,NA,Jan 19 2023 10:55:58,Agnieszka,1
5fdbb,5fdbb_session1_listb_naming_trial098_car.wav,1,b,naming,98,car,885,correct,NA,Jan 19 2023 10:56:05,Agnieszka,1
5fdbb,5fdbb_session1_listb_naming_trial099_scarf.wav,1,b,naming,99,scarf,885,correct,NA,Jan 19 2023 10:56:13,Agnieszka,1
5fdbb,5fdbb_session1_listb_naming_trial100_fist.wav,1,b,naming,100,fist,1034,correct,NA,Jan 19 2023 10:56:20,Agnieszka,1
5fdbb,5fdbb_session1_listb_naming_trial101_bra.wav,1,b,naming,101,bra,851,correct,NA,Jan 19 2023 10:56:28,Agnieszka,1
5fdbb,5fdbb_session1_listb_naming_trial102_microphone.wav,1,b,naming,102,microphone,1015,correct,NA,Jan 19 2023 10:56:37,Agnieszka,1
5fdbb,5fdbb_session1_listb_naming_trial103_witch.wav,1,b,naming,103,witch,920,correct,NA,Jan 19 2023 10:56:47,Agnieszka,1
5fdbb,5fdbb_session1_listb_naming_trial104_keyboard.wav,1,b,naming,104,keyboard,843,correct,NA,Jan 19 2023 10:56:53,Agnieszka,1
5fdbb,5fdbb_session1_listb_naming_trial105_fire.wav,1,b,naming,105,fire,866,correct,NA,Jan 19 2023 10:57:12,Agnieszka,1
5fdbb,5fdbb_session1_listb_naming_trial106_face.wav,1,b,naming,106,face,977,correct,NA,Jan 19 2023 10:57:50,Agnieszka,1
5fdbb,5fdbb_session1_listb_naming_trial107_frog.wav,1,b,naming,107,frog,866,correct,NA,Jan 19 2023 10:58:08,Agnieszka,1
5fdbb,5fdbb_session1_listb_naming_trial108_nose.wav,1,b,naming,108,nose,850,correct,NA,Jan 19 2023 10:58:19,Agnieszka,1
5fdbb,5fdbb_session1_listb_naming_trial109_spider.wav,1,b,naming,109,spider,1330,correct,NA,Jan 19 2023 10:58:26,Agnieszka,1
5fdbb,5fdbb_session1_listb_naming_trial110_football.wav,1,b,naming,110,football,967,correct,NA,Jan 19 2023 10:58:34,Agnieszka,1
5fdbb,5fdbb_session1_listb_naming_trial111_cannon.wav,1,b,naming,111,cannon,1084,correct,NA,Jan 19 2023 10:58:40,Agnieszka,1
5fdbb,5fdbb_session1_listb_naming_trial112_snail.wav,1,b,naming,112,snail,789,correct,NA,Jan 19 2023 10:58:51,Agnieszka,1
5fdbb,5fdbb_session1_listb_naming_trial113_cone.wav,1,b,naming,113,cone,879,correct,NA,Jan 19 2023 10:58:58,Agnieszka,1
5fdbb,5fdbb_session1_listb_naming_trial114_shirt.wav,1,b,naming,114,shirt,869,correct,NA,Jan 19 2023 10:59:05,Agnieszka,1
5fdbb,5fdbb_session1_listb_naming_trial115_pool.wav,1,b,naming,115,pool,996,correct,NA,Jan 19 2023 10:59:13,Agnieszka,1
5fdbb,5fdbb_session1_listb_naming_trial116_diamond.wav,1,b,naming,116,diamond,859,correct,NA,Jan 19 2023 10:59:20,Agnieszka,1
5fdbb,5fdbb_session1_listb_naming_trial117_choir.wav,1,b,naming,117,choir,932,correct,NA,Jan 19 2023 10:59:27,Agnieszka,1
5fdbb,5fdbb_session1_listb_naming_trial118_bedroom.wav,1,b,naming,118,bedroom,1403,correct,NA,Jan 19 2023 10:59:34,Agnieszka,1
5fdbb,5fdbb_session1_listb_naming_trial119_ankle.wav,1,b,naming,119,ankle,1160,correct,NA,Jan 19 2023 10:59:41,Agnieszka,1
5fdbb,5fdbb_session1_listb_naming_trial120_apron.wav,1,b,naming,120,apron,990,correct,NA,Jan 19 2023 10:59:50,Agnieszka,1
5fdbb,5fdbb_session1_listb_naming_trial121_thermometer.wav,1,b,naming,121,thermometer,920,correct,NA,Jan 19 2023 10:59:56,Agnieszka,1
5fdbb,5fdbb_session1_listb_naming_trial122_ambulance.wav,1,b,naming,122,ambulance,854,correct,NA,Jan 19 2023 11:00:03,Agnieszka,1
5fdbb,5fdbb_session1_listb_naming_trial123_bed.wav,1,b,naming,123,bed,904,correct,NA,Jan 19 2023 11:00:11,Agnieszka,1
5fdbb,5fdbb_session1_listb_naming_trial124_condom.wav,1,b,naming,124,condom,999,correct,NA,Jan 19 2023 11:00:18,Agnieszka,1
5fdbb,5fdbb_session1_listb_naming_trial125_bat.wav,1,b,naming,125,bat,1015,correct,NA,Jan 19 2023 11:00:26,Agnieszka,1
5fdbb,5fdbb_session1_listb_naming_trial126_mask.wav,1,b,naming,126,mask,1087,correct,NA,Jan 19 2023 11:00:34,Agnieszka,1
5fdbb,5fdbb_session1_listb_naming_trial127_dolphin.wav,1,b,naming,127,dolphin,796,correct,NA,Jan 19 2023 11:00:45,Agnieszka,1
5fdbb,5fdbb_session1_listb_naming_trial128_chain.wav,1,b,naming,128,chain,1157,correct,NA,Jan 19 2023 11:00:55,Agnieszka,1
5fdbb,5fdbb_session1_listb_naming_trial129_road.wav,1,b,naming,129,road,875,correct,NA,Jan 19 2023 11:01:04,Agnieszka,1
5fdbb,5fdbb_session1_listb_naming_trial130_printer.wav,1,b,naming,130,printer,977,correct,NA,Jan 19 2023 11:01:14,Agnieszka,1
5fdbb,5fdbb_session1_listb_naming_trial131_cage.wav,1,b,naming,131,cage,1160,correct,NA,Jan 19 2023 11:01:21,Agnieszka,1
5fdbb,5fdbb_session1_listb_naming_trial132_maze.wav,1,b,naming,132,maze,933,correct,NA,Jan 19 2023 11:01:29,Agnieszka,1
5fdbb,5fdbb_session1_listb_naming_trial133_torch.wav,1,b,naming,133,torch,1403,correct,NA,Jan 19 2023 11:01:36,Agnieszka,1
5fdbb,5fdbb_session1_listb_naming_trial134_nun.wav,1,b,naming,134,nun,-1,wrong_word,NA,Jan 19 2023 11:01:44,Agnieszka,1
5fdbb,5fdbb_session1_listb_naming_trial135_nurse.wav,1,b,naming,135,nurse,1765,correct,NA,Jan 19 2023 11:01:52,Agnieszka,1
5fdbb,5fdbb_session1_listb_naming_trial136_eye.wav,1,b,naming,136,eye,1034,correct,NA,Jan 19 2023 11:02:00,Agnieszka,1
5fdbb,5fdbb_session1_listb_naming_trial137_asparagus.wav,1,b,naming,137,asparagus,1192,correct,NA,Jan 19 2023 11:02:07,Agnieszka,1
5fdbb,5fdbb_session1_listb_naming_trial138_harp.wav,1,b,naming,138,harp,1593,correct,NA,Jan 19 2023 11:02:14,Agnieszka,1
5fdbb,5fdbb_session1_listb_naming_trial139_man.wav,1,b,naming,139,man,1231,correct,NA,Jan 19 2023 11:02:21,Agnieszka,1
5fdbb,5fdbb_session1_listb_naming_trial140_beard.wav,1,b,naming,140,beard,1002,correct,NA,Jan 19 2023 11:02:29,Agnieszka,1
5fdbb,5fdbb_session1_listb_naming_trial141_giraffe.wav,1,b,naming,141,giraffe,822,correct,NA,Jan 19 2023 11:02:40,Agnieszka,1
5fdbb,5fdbb_session1_listb_naming_trial142_greenhouse.wav,1,b,naming,142,greenhouse,1135,correct,NA,Jan 19 2023 11:02:46,Agnieszka,1
5fdbb,5fdbb_session1_listb_naming_trial143_handle.wav,1,b,naming,143,handle,1104,correct,NA,Jan 19 2023 11:02:53,Agnieszka,1
5fdbb,5fdbb_session1_listb_naming_trial144_screwdriver.wav,1,b,naming,144,screwdriver,910,correct,NA,Jan 19 2023 11:03:01,Agnieszka,1
5fdbb,5fdbb_session1_listb_naming_trial145_desert.wav,1,b,naming,145,desert,1069,correct,NA,Jan 19 2023 11:03:08,Agnieszka,1
5fdbb,5fdbb_session1_listb_naming_trial146_iron.wav,1,b,naming,146,iron,917,correct,NA,Jan 19 2023 11:03:17,Agnieszka,1
5fdbb,5fdbb_session1_listb_naming_trial147_feather.wav,1,b,naming,147,feather,847,correct,NA,Jan 19 2023 11:03:25,Agnieszka,1
5fdbb,5fdbb_session1_listb_naming_trial148_gun.wav,1,b,naming,148,gun,942,correct,NA,Jan 19 2023 11:03:34,Agnieszka,1
5fdbb,5fdbb_session1_listb_naming_trial149_honey.wav,1,b,naming,149,honey,942,correct,NA,Jan 19 2023 11:03:41,Agnieszka,1
5fdbb,5fdbb_session1_listb_naming_trial150_penguin.wav,1,b,naming,150,penguin,797,correct,NA,Jan 19 2023 11:03:48,Agnieszka,1
