Participant_ID,File_Name,Session,List,Type_Trial,Trial_Nbr,Target,RT,Response_Trial,Comment,Date_Correction,Assessor_Name,Processed
5cbcc,5cbcc_session1_listb_naming_trial001_jar.wav,1,b,naming,1,jar,1170,correct,NA,Feb 21 2023 15:00:04,Agnieszka,1
5cbcc,5cbcc_session1_listb_naming_trial002_king.wav,1,b,naming,2,king,1291,correct,NA,Feb 21 2023 15:00:15,Agnieszka,1
5cbcc,5cbcc_session1_listb_naming_trial003_parachute.wav,1,b,naming,3,parachute,1632,correct,NA,Feb 21 2023 15:00:26,Agnieszka,1
5cbcc,5cbcc_session1_listb_naming_trial004_foot.wav,1,b,naming,4,foot,657,correct,NA,Feb 21 2023 15:00:46,Agnieszka,1
5cbcc,5cbcc_session1_listb_naming_trial005_dolphin.wav,1,b,naming,5,dolphin,864,correct,NA,Feb 21 2023 15:01:31,Agnieszka,1
5cbcc,5cbcc_session1_listb_naming_trial006_stapler.wav,1,b,naming,6,stapler,667,correct,NA,Feb 21 2023 15:01:42,Agnieszka,1
5cbcc,5cbcc_session1_listb_naming_trial007_house.wav,1,b,naming,7,house,877,correct,NA,Feb 21 2023 15:01:55,Agnieszka,1
5cbcc,5cbcc_session1_listb_naming_trial008_lemon.wav,1,b,naming,8,lemon,950,correct,NA,Feb 21 2023 15:02:16,Agnieszka,1
5cbcc,5cbcc_session1_listb_naming_trial009_cloud.wav,1,b,naming,9,cloud,772,correct,NA,Feb 21 2023 15:03:06,Agnieszka,1
5cbcc,5cbcc_session1_listb_naming_trial010_door.wav,1,b,naming,10,door,692,correct,NA,Feb 21 2023 15:03:17,Agnieszka,1
5cbcc,5cbcc_session1_listb_naming_trial011_moustache.wav,1,b,naming,11,moustache,692,correct,NA,Feb 21 2023 15:03:29,Agnieszka,1
5cbcc,5cbcc_session1_listb_naming_trial012_desert.wav,1,b,naming,12,desert,807,correct,NA,Feb 21 2023 15:03:39,Agnieszka,1
5cbcc,5cbcc_session1_listb_naming_trial013_shark.wav,1,b,naming,13,shark,-1,wrong_word,NA,Feb 21 2023 15:03:56,Agnieszka,1
5cbcc,5cbcc_session1_listb_naming_trial014_tank.wav,1,b,naming,14,tank,-1,wrong_word,NA,Feb 21 2023 15:04:09,Agnieszka,1
5cbcc,5cbcc_session1_listb_naming_trial015_brain.wav,1,b,naming,15,brain,868,correct,NA,Feb 21 2023 15:04:17,Agnieszka,1
5cbcc,5cbcc_session1_listb_naming_trial016_mirror.wav,1,b,naming,16,mirror,686,correct,NA,Feb 21 2023 15:04:25,Agnieszka,1
5cbcc,5cbcc_session1_listb_naming_trial017_mask.wav,1,b,naming,17,mask,805,correct,NA,Feb 21 2023 15:04:56,Agnieszka,1
5cbcc,5cbcc_session1_listb_naming_trial018_swimming.wav,1,b,naming,18,swimming,-1,wrong_word,NA,Feb 21 2023 15:05:07,Agnieszka,1
5cbcc,5cbcc_session1_listb_naming_trial019_spider.wav,1,b,naming,19,spider,1167,correct,NA,Feb 21 2023 15:05:14,Agnieszka,1
5cbcc,5cbcc_session1_listb_naming_trial020_knee.wav,1,b,naming,20,knee,1148,correct,NA,Feb 21 2023 15:05:21,Agnieszka,1
5cbcc,5cbcc_session1_listb_naming_trial021_microphone.wav,1,b,naming,21,microphone,756,correct,NA,Feb 21 2023 15:05:33,Agnieszka,1
5cbcc,5cbcc_session1_listb_naming_trial022_condom.wav,1,b,naming,22,condom,944,correct,NA,Feb 21 2023 15:05:46,Agnieszka,1
5cbcc,5cbcc_session1_listb_naming_trial023_well.wav,1,b,naming,23,well,928,correct,NA,Feb 21 2023 15:05:53,Agnieszka,1
5cbcc,5cbcc_session1_listb_naming_trial024_broccoli.wav,1,b,naming,24,broccoli,922,correct,NA,Feb 21 2023 15:06:53,Agnieszka,1
5cbcc,5cbcc_session1_listb_naming_trial025_cigarette.wav,1,b,naming,25,cigarette,638,correct,NA,Feb 21 2023 15:07:04,Agnieszka,1
5cbcc,5cbcc_session1_listb_naming_trial026_bedroom.wav,1,b,naming,26,bedroom,-1,wrong_word,NA,Feb 21 2023 15:07:09,Agnieszka,1
5cbcc,5cbcc_session1_listb_naming_trial027_coffin.wav,1,b,naming,27,coffin,842,correct,NA,Feb 21 2023 15:07:19,Agnieszka,1
5cbcc,5cbcc_session1_listb_naming_trial028_asparagus.wav,1,b,naming,28,asparagus,915,correct,NA,Feb 21 2023 15:07:27,Agnieszka,1
5cbcc,5cbcc_session1_listb_naming_trial029_printer.wav,1,b,naming,29,printer,1288,correct,NA,Feb 21 2023 15:07:39,Agnieszka,1
5cbcc,5cbcc_session1_listb_naming_trial030_wallet.wav,1,b,naming,30,wallet,855,correct,NA,Feb 21 2023 15:07:59,Agnieszka,1
5cbcc,5cbcc_session1_listb_naming_trial031_vein.wav,1,b,naming,31,vein,817,correct,NA,Feb 21 2023 15:08:07,Agnieszka,1
5cbcc,5cbcc_session1_listb_naming_trial032_calculator.wav,1,b,naming,32,calculator,785,correct,NA,Feb 21 2023 15:08:20,Agnieszka,1
5cbcc,5cbcc_session1_listb_naming_trial033_choir.wav,1,b,naming,33,choir,1084,correct,NA,Feb 21 2023 15:09:51,Agnieszka,1
5cbcc,5cbcc_session1_listb_naming_trial034_devil.wav,1,b,naming,34,devil,1288,correct,NA,Feb 21 2023 15:10:18,Agnieszka,1
5cbcc,5cbcc_session1_listb_naming_trial035_cactus.wav,1,b,naming,35,cactus,762,correct,NA,Feb 21 2023 15:10:31,Agnieszka,1
5cbcc,5cbcc_session1_listb_naming_trial036_glasses.wav,1,b,naming,36,glasses,982,correct,NA,Feb 21 2023 15:10:43,Agnieszka,1
5cbcc,5cbcc_session1_listb_naming_trial037_spoon.wav,1,b,naming,37,spoon,756,correct,NA,Feb 21 2023 15:10:51,Agnieszka,1
5cbcc,5cbcc_session1_listb_naming_trial038_sheep.wav,1,b,naming,38,sheep,963,correct,NA,Feb 21 2023 15:11:02,Agnieszka,1
5cbcc,5cbcc_session1_listb_naming_trial039_burger.wav,1,b,naming,39,burger,1046,correct,NA,Feb 21 2023 15:11:10,Agnieszka,1
5cbcc,5cbcc_session1_listb_naming_trial040_iron.wav,1,b,naming,40,iron,804,correct,NA,Feb 21 2023 15:11:21,Agnieszka,1
5cbcc,5cbcc_session1_listb_naming_trial041_crown.wav,1,b,naming,41,crown,791,correct,NA,Feb 21 2023 15:11:30,Agnieszka,1
5cbcc,5cbcc_session1_listb_naming_trial042_gun.wav,1,b,naming,42,gun,791,correct,NA,Feb 21 2023 15:11:39,Agnieszka,1
5cbcc,5cbcc_session1_listb_naming_trial043_pilot.wav,1,b,naming,43,pilot,1371,correct,NA,Feb 21 2023 15:11:51,Agnieszka,1
5cbcc,5cbcc_session1_listb_naming_trial044_car.wav,1,b,naming,44,car,829,correct,NA,Feb 21 2023 15:11:59,Agnieszka,1
5cbcc,5cbcc_session1_listb_naming_trial045_torch.wav,1,b,naming,45,torch,941,correct,NA,Feb 21 2023 15:12:10,Agnieszka,1
5cbcc,5cbcc_session1_listb_naming_trial046_egg.wav,1,b,naming,46,egg,1008,correct,NA,Feb 21 2023 15:12:18,Agnieszka,1
5cbcc,5cbcc_session1_listb_naming_trial047_nun.wav,1,b,naming,47,nun,1348,correct,NA,Feb 21 2023 15:12:27,Agnieszka,1
5cbcc,5cbcc_session1_listb_naming_trial048_fist.wav,1,b,naming,48,fist,1250,correct,NA,Feb 21 2023 15:12:38,Agnieszka,1
5cbcc,5cbcc_session1_listb_naming_trial049_skull.wav,1,b,naming,49,skull,944,correct,NA,Feb 21 2023 15:12:49,Agnieszka,1
5cbcc,5cbcc_session1_listb_naming_trial050_belt.wav,1,b,naming,50,belt,648,correct,NA,Feb 21 2023 15:13:10,Agnieszka,1
5cbcc,5cbcc_session1_listb_naming_trial051_dentist.wav,1,b,naming,51,dentist,1403,correct,NA,Feb 21 2023 15:13:59,Agnieszka,1
5cbcc,5cbcc_session1_listb_naming_trial052_lion.wav,1,b,naming,52,lion,985,correct,NA,Feb 21 2023 15:14:25,Agnieszka,1
5cbcc,5cbcc_session1_listb_naming_trial053_watch.wav,1,b,naming,53,watch,887,correct,NA,Feb 21 2023 15:14:34,Agnieszka,1
5cbcc,5cbcc_session1_listb_naming_trial054_caravan.wav,1,b,naming,54,caravan,1345,correct,NA,Feb 21 2023 15:14:41,Agnieszka,1
5cbcc,5cbcc_session1_listb_naming_trial055_bin.wav,1,b,naming,55,bin,944,correct,NA,Feb 21 2023 15:14:49,Agnieszka,1
5cbcc,5cbcc_session1_listb_naming_trial056_earring.wav,1,b,naming,56,earring,1175,correct,NA,Feb 21 2023 15:14:58,Agnieszka,1
5cbcc,5cbcc_session1_listb_naming_trial057_telephone.wav,1,b,naming,57,telephone,823,correct,NA,Feb 21 2023 15:15:08,Agnieszka,1
5cbcc,5cbcc_session1_listb_naming_trial058_snail.wav,1,b,naming,58,snail,676,correct,NA,Feb 21 2023 15:15:18,Agnieszka,1
5cbcc,5cbcc_session1_listb_naming_trial059_duck.wav,1,b,naming,59,duck,934,correct,NA,Feb 21 2023 15:15:26,Agnieszka,1
5cbcc,5cbcc_session1_listb_naming_trial060_back.wav,1,b,naming,60,back,1294,correct,NA,Feb 21 2023 15:15:33,Agnieszka,1
5cbcc,5cbcc_session1_listb_naming_trial061_cone.wav,1,b,naming,61,cone,769,correct,NA,Feb 21 2023 15:15:40,Agnieszka,1
5cbcc,5cbcc_session1_listb_naming_trial062_camera.wav,1,b,naming,62,camera,822,correct,NA,Feb 21 2023 15:15:50,Agnieszka,1
5cbcc,5cbcc_session1_listb_naming_trial063_chain.wav,1,b,naming,63,chain,832,correct,NA,Feb 21 2023 15:16:00,Agnieszka,1
5cbcc,5cbcc_session1_listb_naming_trial064_strawberry.wav,1,b,naming,64,strawberry,657,correct,NA,Feb 21 2023 15:16:20,Agnieszka,1
5cbcc,5cbcc_session1_listb_naming_trial065_face.wav,1,b,naming,65,face,1785,correct,NA,Feb 21 2023 15:16:34,Agnieszka,1
5cbcc,5cbcc_session1_listb_naming_trial066_baby.wav,1,b,naming,66,baby,995,correct,NA,Feb 21 2023 15:16:42,Agnieszka,1
5cbcc,5cbcc_session1_listb_naming_trial067_pool.wav,1,b,naming,67,pool,-1,wrong_word,NA,Feb 21 2023 15:16:51,Agnieszka,1
5cbcc,5cbcc_session1_listb_naming_trial068_apron.wav,1,b,naming,68,apron,1027,correct,NA,Feb 21 2023 15:16:59,Agnieszka,1
5cbcc,5cbcc_session1_listb_naming_trial069_button.wav,1,b,naming,69,button,871,correct,NA,Feb 21 2023 15:17:08,Agnieszka,1
5cbcc,5cbcc_session1_listb_naming_trial070_skeleton.wav,1,b,naming,70,skeleton,918,correct,NA,Feb 21 2023 15:17:30,Agnieszka,1
5cbcc,5cbcc_session1_listb_naming_trial071_coconut.wav,1,b,naming,71,coconut,1116,correct,NA,Feb 21 2023 15:17:38,Agnieszka,1
5cbcc,5cbcc_session1_listb_naming_trial072_sink.wav,1,b,naming,72,sink,861,correct,NA,Feb 21 2023 15:17:48,Agnieszka,1
5cbcc,5cbcc_session1_listb_naming_trial073_scarf.wav,1,b,naming,73,scarf,1024,correct,NA,Feb 21 2023 15:17:59,Agnieszka,1
5cbcc,5cbcc_session1_listb_naming_trial074_parrot.wav,1,b,naming,74,parrot,1100,correct,NA,Feb 21 2023 15:18:06,Agnieszka,1
5cbcc,5cbcc_session1_listb_naming_trial075_boomerang.wav,1,b,naming,75,boomerang,1106,correct,NA,Feb 21 2023 15:18:15,Agnieszka,1
5cbcc,5cbcc_session1_listb_naming_trial076_skateboard.wav,1,b,naming,76,skateboard,1014,correct,NA,Feb 21 2023 15:18:26,Agnieszka,1
5cbcc,5cbcc_session1_listb_naming_trial077_scorpion.wav,1,b,naming,77,scorpion,858,correct,NA,Feb 21 2023 15:18:34,Agnieszka,1
5cbcc,5cbcc_session1_listb_naming_trial078_penguin.wav,1,b,naming,78,penguin,1036,correct,NA,Feb 21 2023 15:19:07,Agnieszka,1
5cbcc,5cbcc_session1_listb_naming_trial079_cage.wav,1,b,naming,79,cage,1066,correct,NA,Feb 21 2023 15:19:15,Agnieszka,1
5cbcc,5cbcc_session1_listb_naming_trial080_cowboy.wav,1,b,naming,80,cowboy,1103,correct,NA,Feb 21 2023 15:19:26,Agnieszka,1
5cbcc,5cbcc_session1_listb_naming_trial081_beard.wav,1,b,naming,81,beard,-1,wrong_word,NA,Feb 21 2023 15:19:32,Agnieszka,1
5cbcc,5cbcc_session1_listb_naming_trial082_eye.wav,1,b,naming,82,eye,-1,wrong_word,NA,Feb 21 2023 15:19:39,Agnieszka,1
5cbcc,5cbcc_session1_listb_naming_trial083_lizard.wav,1,b,naming,83,lizard,-1,wrong_word,NA,Feb 21 2023 15:19:47,Agnieszka,1
5cbcc,5cbcc_session1_listb_naming_trial084_witch.wav,1,b,naming,84,witch,1011,correct,NA,Feb 21 2023 15:19:54,Agnieszka,1
5cbcc,5cbcc_session1_listb_naming_trial085_giraffe.wav,1,b,naming,85,giraffe,998,correct,NA,Feb 21 2023 15:20:01,Agnieszka,1
5cbcc,5cbcc_session1_listb_naming_trial086_bed.wav,1,b,naming,86,bed,1145,correct,NA,Feb 21 2023 15:20:08,Agnieszka,1
5cbcc,5cbcc_session1_listb_naming_trial087_ankle.wav,1,b,naming,87,ankle,-1,wrong_word,NA,Feb 21 2023 15:20:18,Agnieszka,1
5cbcc,5cbcc_session1_listb_naming_trial088_bible.wav,1,b,naming,88,bible,-1,wrong_word,NA,Feb 21 2023 15:20:28,Agnieszka,1
5cbcc,5cbcc_session1_listb_naming_trial089_fire.wav,1,b,naming,89,fire,922,correct,NA,Feb 21 2023 15:20:43,Agnieszka,1
5cbcc,5cbcc_session1_listb_naming_trial090_leaf.wav,1,b,naming,90,leaf,-1,wrong_word,NA,Feb 21 2023 15:20:50,Agnieszka,1
5cbcc,5cbcc_session1_listb_naming_trial091_man.wav,1,b,naming,91,man,1215,correct,NA,Feb 21 2023 15:20:58,Agnieszka,1
5cbcc,5cbcc_session1_listb_naming_trial092_ring.wav,1,b,naming,92,ring,734,correct,NA,Feb 21 2023 15:21:06,Agnieszka,1
5cbcc,5cbcc_session1_listb_naming_trial093_sock.wav,1,b,naming,93,sock,753,correct,NA,Feb 21 2023 15:21:14,Agnieszka,1
5cbcc,5cbcc_session1_listb_naming_trial094_maze.wav,1,b,naming,94,maze,804,correct,NA,Feb 21 2023 15:21:23,Agnieszka,1
5cbcc,5cbcc_session1_listb_naming_trial095_honey.wav,1,b,naming,95,honey,778,correct,NA,Feb 21 2023 15:21:30,Agnieszka,1
5cbcc,5cbcc_session1_listb_naming_trial096_umbrella.wav,1,b,naming,96,umbrella,947,correct,NA,Feb 21 2023 15:21:42,Agnieszka,1
5cbcc,5cbcc_session1_listb_naming_trial097_butcher.wav,1,b,naming,97,butcher,1463,correct,NA,Feb 21 2023 15:21:55,Agnieszka,1
5cbcc,5cbcc_session1_listb_naming_trial098_waiter.wav,1,b,naming,98,waiter,1116,correct,NA,Feb 21 2023 15:23:08,Agnieszka,1
5cbcc,5cbcc_session1_listb_naming_trial099_cannon.wav,1,b,naming,99,cannon,-1,wrong_word,NA,Feb 21 2023 15:23:16,Agnieszka,1
5cbcc,5cbcc_session1_listb_naming_trial100_hedgehog.wav,1,b,naming,100,hedgehog,896,correct,NA,Feb 21 2023 15:23:34,Agnieszka,1
5cbcc,5cbcc_session1_listb_naming_trial101_keyboard.wav,1,b,naming,101,keyboard,740,correct,NA,Feb 21 2023 15:23:41,Agnieszka,1
5cbcc,5cbcc_session1_listb_naming_trial102_roof.wav,1,b,naming,102,roof,1368,correct,NA,Feb 21 2023 15:23:49,Agnieszka,1
5cbcc,5cbcc_session1_listb_naming_trial103_heart.wav,1,b,naming,103,heart,1157,correct,NA,Feb 21 2023 15:23:56,Agnieszka,1
5cbcc,5cbcc_session1_listb_naming_trial104_elephant.wav,1,b,naming,104,elephant,931,correct,NA,Feb 21 2023 15:24:04,Agnieszka,1
5cbcc,5cbcc_session1_listb_naming_trial105_shadow.wav,1,b,naming,105,shadow,1020,correct,NA,Feb 21 2023 15:24:12,Agnieszka,1
5cbcc,5cbcc_session1_listb_naming_trial106_fan.wav,1,b,naming,106,fan,778,correct,NA,Feb 21 2023 15:24:27,Agnieszka,1
5cbcc,5cbcc_session1_listb_naming_trial107_nose.wav,1,b,naming,107,nose,750,correct,NA,Feb 21 2023 15:24:35,Agnieszka,1
5cbcc,5cbcc_session1_listb_naming_trial108_scarecrow.wav,1,b,naming,108,scarecrow,985,correct,NA,Feb 21 2023 15:24:46,Agnieszka,1
5cbcc,5cbcc_session1_listb_naming_trial109_bat.wav,1,b,naming,109,bat,1282,correct,NA,Feb 21 2023 15:24:53,Agnieszka,1
5cbcc,5cbcc_session1_listb_naming_trial110_nurse.wav,1,b,naming,110,nurse,874,correct,NA,Feb 21 2023 15:25:01,Agnieszka,1
5cbcc,5cbcc_session1_listb_naming_trial111_bra.wav,1,b,naming,111,bra,931,correct,NA,Feb 21 2023 15:25:10,Agnieszka,1
5cbcc,5cbcc_session1_listb_naming_trial112_balloon.wav,1,b,naming,112,balloon,874,correct,NA,Feb 21 2023 15:25:19,Agnieszka,1
5cbcc,5cbcc_session1_listb_naming_trial113_pirate.wav,1,b,naming,113,pirate,-1,wrong_word,NA,Feb 21 2023 15:25:28,Agnieszka,1
5cbcc,5cbcc_session1_listb_naming_trial114_volcano.wav,1,b,naming,114,volcano,-1,wrong_word,NA,Feb 21 2023 15:25:36,Agnieszka,1
5cbcc,5cbcc_session1_listb_naming_trial115_airport.wav,1,b,naming,115,airport,1416,correct,NA,Feb 21 2023 15:25:47,Agnieszka,1
5cbcc,5cbcc_session1_listb_naming_trial116_girl.wav,1,b,naming,116,girl,1409,correct,NA,Feb 21 2023 15:25:55,Agnieszka,1
5cbcc,5cbcc_session1_listb_naming_trial117_dog.wav,1,b,naming,117,dog,947,correct,NA,Feb 21 2023 15:26:04,Agnieszka,1
5cbcc,5cbcc_session1_listb_naming_trial118_farm.wav,1,b,naming,118,farm,1320,correct,NA,Feb 21 2023 15:26:16,Agnieszka,1
5cbcc,5cbcc_session1_listb_naming_trial119_banana.wav,1,b,naming,119,banana,829,correct,NA,Feb 21 2023 15:26:24,Agnieszka,1
5cbcc,5cbcc_session1_listb_naming_trial120_calendar.wav,1,b,naming,120,calendar,915,correct,NA,Feb 21 2023 15:26:31,Agnieszka,1
5cbcc,5cbcc_session1_listb_naming_trial121_handle.wav,1,b,naming,121,handle,-1,wrong_word,NA,Feb 21 2023 15:26:39,Agnieszka,1
5cbcc,5cbcc_session1_listb_naming_trial122_shirt.wav,1,b,naming,122,shirt,1336,correct,NA,Feb 21 2023 15:26:56,Agnieszka,1
5cbcc,5cbcc_session1_listb_naming_trial123_screwdriver.wav,1,b,naming,123,screwdriver,868,correct,NA,Feb 21 2023 15:27:04,Agnieszka,1
5cbcc,5cbcc_session1_listb_naming_trial124_broom.wav,1,b,naming,124,broom,1119,correct,NA,Feb 21 2023 15:27:13,Agnieszka,1
5cbcc,5cbcc_session1_listb_naming_trial125_road.wav,1,b,naming,125,road,-1,disfluency,NA,Feb 21 2023 15:27:25,Agnieszka,1
5cbcc,5cbcc_session1_listb_naming_trial126_lab.wav,1,b,naming,126,lab,1565,correct,NA,Feb 21 2023 15:27:32,Agnieszka,1
5cbcc,5cbcc_session1_listb_naming_trial127_needle.wav,1,b,naming,127,needle,871,correct,NA,Feb 21 2023 15:27:39,Agnieszka,1
5cbcc,5cbcc_session1_listb_naming_trial128_harp.wav,1,b,naming,128,harp,1661,correct,NA,Feb 21 2023 15:27:47,Agnieszka,1
5cbcc,5cbcc_session1_listb_naming_trial129_coffee.wav,1,b,naming,129,coffee,1170,correct,NA,Feb 21 2023 15:27:56,Agnieszka,1
5cbcc,5cbcc_session1_listb_naming_trial130_tooth.wav,1,b,naming,130,tooth,975,correct,NA,Feb 21 2023 15:28:04,Agnieszka,1
5cbcc,5cbcc_session1_listb_naming_trial131_fruit.wav,1,b,naming,131,fruit,1027,correct,NA,Feb 21 2023 15:28:15,Agnieszka,1
5cbcc,5cbcc_session1_listb_naming_trial132_diamond.wav,1,b,naming,132,diamond,963,correct,NA,Feb 21 2023 15:28:25,Agnieszka,1
5cbcc,5cbcc_session1_listb_naming_trial133_finger.wav,1,b,naming,133,finger,829,correct,NA,Feb 21 2023 15:28:39,Agnieszka,1
5cbcc,5cbcc_session1_listb_naming_trial134_ambulance.wav,1,b,naming,134,ambulance,912,correct,NA,Feb 21 2023 15:28:49,Agnieszka,1
5cbcc,5cbcc_session1_listb_naming_trial135_football.wav,1,b,naming,135,football,941,correct,NA,Feb 21 2023 15:29:01,Agnieszka,1
5cbcc,5cbcc_session1_listb_naming_trial136_feather.wav,1,b,naming,136,feather,864,correct,NA,Feb 21 2023 15:29:11,Agnieszka,1
5cbcc,5cbcc_session1_listb_naming_trial137_chair.wav,1,b,naming,137,chair,944,correct,NA,Feb 21 2023 15:29:18,Agnieszka,1
5cbcc,5cbcc_session1_listb_naming_trial138_greenhouse.wav,1,b,naming,138,greenhouse,1399,correct,NA,Feb 21 2023 15:29:25,Agnieszka,1
5cbcc,5cbcc_session1_listb_naming_trial139_guitar.wav,1,b,naming,139,guitar,863,correct,NA,Feb 21 2023 15:29:35,Agnieszka,1
5cbcc,5cbcc_session1_listb_naming_trial140_trumpet.wav,1,b,naming,140,trumpet,890,uncertain,NA,Feb 21 2023 15:30:00,Agnieszka,1
5cbcc,5cbcc_session1_listb_naming_trial141_thermometer.wav,1,b,naming,141,thermometer,973,correct,NA,Feb 21 2023 15:30:08,Agnieszka,1
5cbcc,5cbcc_session1_listb_naming_trial142_hand.wav,1,b,naming,142,hand,887,correct,NA,Feb 21 2023 15:30:19,Agnieszka,1
5cbcc,5cbcc_session1_listb_naming_trial143_television.wav,1,b,naming,143,television,-1,wrong_word,NA,Feb 21 2023 15:30:26,Agnieszka,1
5cbcc,5cbcc_session1_listb_naming_trial144_pumpkin.wav,1,b,naming,144,pumpkin,1301,correct,NA,Feb 21 2023 15:30:33,Agnieszka,1
5cbcc,5cbcc_session1_listb_naming_trial145_glass.wav,1,b,naming,145,glass,976,correct,NA,Feb 21 2023 15:30:41,Agnieszka,1
5cbcc,5cbcc_session1_listb_naming_trial146_frog.wav,1,b,naming,146,frog,737,correct,NA,Feb 21 2023 15:30:48,Agnieszka,1
5cbcc,5cbcc_session1_listb_naming_trial147_hair.wav,1,b,naming,147,hair,-1,wrong_word,NA,Feb 21 2023 15:30:56,Agnieszka,1
5cbcc,5cbcc_session1_listb_naming_trial148_dinosaur.wav,1,b,naming,148,dinosaur,1020,correct,NA,Feb 21 2023 15:31:03,Agnieszka,1
5cbcc,5cbcc_session1_listb_naming_trial149_dragon.wav,1,b,naming,149,dragon,954,correct,NA,Feb 21 2023 15:31:09,Agnieszka,1
5cbcc,5cbcc_session1_listb_naming_trial150_pizza.wav,1,b,naming,150,pizza,839,correct,NA,Feb 21 2023 15:31:17,Agnieszka,1
