Participant_ID,File_Name,Session,List,Type_Trial,Trial_Nbr,Target,RT,Response_Trial,Comment,Date_Correction,Assessor_Name,Processed
6085a,6085a_session1_listb_naming_trial001_glasses.wav,1,b,naming,1,glasses,944,correct,NA,Jan 27 2023 14:55:07,Agnieszka,1
6085a,6085a_session1_listb_naming_trial002_swimming.wav,1,b,naming,2,swimming,1081,uncertain,not sure if the initial 's' isnt a bit prolonged,Jan 27 2023 14:55:27,Agnieszka,1
6085a,6085a_session1_listb_naming_trial003_coffee.wav,1,b,naming,3,coffee,896,correct,NA,Jan 27 2023 14:55:39,Agnieszka,1
6085a,6085a_session1_listb_naming_trial004_tank.wav,1,b,naming,4,tank,1024,correct,NA,Jan 27 2023 14:55:47,Agnieszka,1
6085a,6085a_session1_listb_naming_trial005_wallet.wav,1,b,naming,5,wallet,1272,correct,NA,Jan 27 2023 14:55:58,Agnieszka,1
6085a,6085a_session1_listb_naming_trial006_bible.wav,1,b,naming,6,bible,1049,correct,NA,Jan 27 2023 14:56:13,Agnieszka,1
6085a,6085a_session1_listb_naming_trial007_jar.wav,1,b,naming,7,jar,979,correct,NA,Jan 27 2023 14:56:20,Agnieszka,1
6085a,6085a_session1_listb_naming_trial008_cone.wav,1,b,naming,8,cone,973,correct,NA,Jan 27 2023 14:56:27,Agnieszka,1
6085a,6085a_session1_listb_naming_trial009_greenhouse.wav,1,b,naming,9,greenhouse,1020,correct,NA,Jan 27 2023 14:56:34,Agnieszka,1
6085a,6085a_session1_listb_naming_trial010_heart.wav,1,b,naming,10,heart,985,correct,NA,Jan 27 2023 14:56:54,Agnieszka,1
6085a,6085a_session1_listb_naming_trial011_hedgehog.wav,1,b,naming,11,hedgehog,804,correct,NA,Jan 27 2023 14:57:02,Agnieszka,1
6085a,6085a_session1_listb_naming_trial012_leaf.wav,1,b,naming,12,leaf,817,correct,NA,Jan 27 2023 14:57:14,Agnieszka,1
6085a,6085a_session1_listb_naming_trial013_king.wav,1,b,naming,13,king,1151,correct,NA,Jan 27 2023 14:57:24,Agnieszka,1
6085a,6085a_session1_listb_naming_trial014_cannon.wav,1,b,naming,14,cannon,-1,wrong_word,NA,Jan 27 2023 14:57:31,Agnieszka,1
6085a,6085a_session1_listb_naming_trial015_devil.wav,1,b,naming,15,devil,1129,correct,NA,Jan 27 2023 14:57:37,Agnieszka,1
6085a,6085a_session1_listb_naming_trial016_cloud.wav,1,b,naming,16,cloud,1110,correct,NA,Jan 27 2023 14:57:47,Agnieszka,1
6085a,6085a_session1_listb_naming_trial017_brain.wav,1,b,naming,17,brain,941,correct,NA,Jan 27 2023 14:57:54,Agnieszka,1
6085a,6085a_session1_listb_naming_trial018_apron.wav,1,b,naming,18,apron,944,correct,NA,Jan 27 2023 14:58:01,Agnieszka,1
6085a,6085a_session1_listb_naming_trial019_calculator.wav,1,b,naming,19,calculator,782,correct,NA,Jan 27 2023 14:58:11,Agnieszka,1
6085a,6085a_session1_listb_naming_trial020_moustache.wav,1,b,naming,20,moustache,890,correct,NA,Jan 27 2023 14:58:18,Agnieszka,1
6085a,6085a_session1_listb_naming_trial021_shirt.wav,1,b,naming,21,shirt,779,correct,NA,Jan 27 2023 14:58:26,Agnieszka,1
6085a,6085a_session1_listb_naming_trial022_balloon.wav,1,b,naming,22,balloon,1183,correct,NA,Jan 27 2023 14:58:35,Agnieszka,1
6085a,6085a_session1_listb_naming_trial023_fan.wav,1,b,naming,23,fan,918,correct,NA,Jan 27 2023 14:58:45,Agnieszka,1
6085a,6085a_session1_listb_naming_trial024_mirror.wav,1,b,naming,24,mirror,769,correct,NA,Jan 27 2023 14:58:53,Agnieszka,1
6085a,6085a_session1_listb_naming_trial025_shark.wav,1,b,naming,25,shark,836,correct,NA,Jan 27 2023 14:59:19,Agnieszka,1
6085a,6085a_session1_listb_naming_trial026_girl.wav,1,b,naming,26,girl,836,correct,NA,Jan 27 2023 14:59:26,Agnieszka,1
6085a,6085a_session1_listb_naming_trial027_umbrella.wav,1,b,naming,27,umbrella,871,correct,NA,Jan 27 2023 14:59:35,Agnieszka,1
6085a,6085a_session1_listb_naming_trial028_sink.wav,1,b,naming,28,sink,871,correct,NA,Jan 27 2023 14:59:43,Agnieszka,1
6085a,6085a_session1_listb_naming_trial029_needle.wav,1,b,naming,29,needle,1154,correct,NA,Jan 27 2023 14:59:50,Agnieszka,1
6085a,6085a_session1_listb_naming_trial030_coconut.wav,1,b,naming,30,coconut,1001,correct,NA,Jan 27 2023 14:59:58,Agnieszka,1
6085a,6085a_session1_listb_naming_trial031_caravan.wav,1,b,naming,31,caravan,1202,correct,NA,Jan 27 2023 15:00:05,Agnieszka,1
6085a,6085a_session1_listb_naming_trial032_airport.wav,1,b,naming,32,airport,1629,correct,NA,Jan 27 2023 15:00:12,Agnieszka,1
6085a,6085a_session1_listb_naming_trial033_egg.wav,1,b,naming,33,egg,1272,correct,NA,Jan 27 2023 15:00:20,Agnieszka,1
6085a,6085a_session1_listb_naming_trial034_banana.wav,1,b,naming,34,banana,995,correct,NA,Jan 27 2023 15:00:29,Agnieszka,1
6085a,6085a_session1_listb_naming_trial035_condom.wav,1,b,naming,35,condom,1798,correct,NA,Jan 27 2023 15:00:36,Agnieszka,1
6085a,6085a_session1_listb_naming_trial036_dentist.wav,1,b,naming,36,dentist,1903,correct,NA,Jan 27 2023 15:00:45,Agnieszka,1
6085a,6085a_session1_listb_naming_trial037_back.wav,1,b,naming,37,back,1482,correct,NA,Jan 27 2023 15:00:55,Agnieszka,1
6085a,6085a_session1_listb_naming_trial038_ambulance.wav,1,b,naming,38,ambulance,1055,correct,NA,Jan 27 2023 15:01:03,Agnieszka,1
6085a,6085a_session1_listb_naming_trial039_broccoli.wav,1,b,naming,39,broccoli,960,correct,NA,Jan 27 2023 15:01:11,Agnieszka,1
6085a,6085a_session1_listb_naming_trial040_giraffe.wav,1,b,naming,40,giraffe,877,correct,NA,Jan 27 2023 15:01:18,Agnieszka,1
6085a,6085a_session1_listb_naming_trial041_dolphin.wav,1,b,naming,41,dolphin,980,correct,NA,Jan 27 2023 15:01:30,Agnieszka,1
6085a,6085a_session1_listb_naming_trial042_keyboard.wav,1,b,naming,42,keyboard,1027,correct,NA,Jan 27 2023 15:01:37,Agnieszka,1
6085a,6085a_session1_listb_naming_trial043_glass.wav,1,b,naming,43,glass,1673,correct,NA,Jan 27 2023 15:01:44,Agnieszka,1
6085a,6085a_session1_listb_naming_trial044_penguin.wav,1,b,naming,44,penguin,1995,correct,NA,Jan 27 2023 15:02:06,Agnieszka,1
6085a,6085a_session1_listb_naming_trial045_ring.wav,1,b,naming,45,ring,934,correct,NA,Jan 27 2023 15:02:13,Agnieszka,1
6085a,6085a_session1_listb_naming_trial046_elephant.wav,1,b,naming,46,elephant,686,correct,NA,Jan 27 2023 15:02:22,Agnieszka,1
6085a,6085a_session1_listb_naming_trial047_scorpion.wav,1,b,naming,47,scorpion,-1,disfluency,NA,Jan 27 2023 15:02:29,Agnieszka,1
6085a,6085a_session1_listb_naming_trial048_thermometer.wav,1,b,naming,48,thermometer,1492,correct,NA,Jan 27 2023 15:02:48,Agnieszka,1
6085a,6085a_session1_listb_naming_trial049_skeleton.wav,1,b,naming,49,skeleton,832,uncertain,sounds like "skellington" to me? I'm not sure,Jan 27 2023 15:03:42,Agnieszka,1
6085a,6085a_session1_listb_naming_trial050_frog.wav,1,b,naming,50,frog,829,correct,NA,Jan 27 2023 15:04:13,Agnieszka,1
6085a,6085a_session1_listb_naming_trial051_maze.wav,1,b,naming,51,maze,1113,correct,NA,Jan 27 2023 15:04:23,Agnieszka,1
6085a,6085a_session1_listb_naming_trial052_pumpkin.wav,1,b,naming,52,pumpkin,982,correct,NA,Jan 27 2023 15:04:34,Agnieszka,1
6085a,6085a_session1_listb_naming_trial053_boomerang.wav,1,b,naming,53,boomerang,991,correct,NA,Jan 27 2023 15:04:41,Agnieszka,1
6085a,6085a_session1_listb_naming_trial054_trumpet.wav,1,b,naming,54,trumpet,1412,correct,NA,Jan 27 2023 15:04:48,Agnieszka,1
6085a,6085a_session1_listb_naming_trial055_fire.wav,1,b,naming,55,fire,1046,correct,NA,Jan 27 2023 15:04:55,Agnieszka,1
6085a,6085a_session1_listb_naming_trial056_telephone.wav,1,b,naming,56,telephone,982,correct,NA,Jan 27 2023 15:05:03,Agnieszka,1
6085a,6085a_session1_listb_naming_trial057_dinosaur.wav,1,b,naming,57,dinosaur,1237,correct,NA,Jan 27 2023 15:05:10,Agnieszka,1
6085a,6085a_session1_listb_naming_trial058_pilot.wav,1,b,naming,58,pilot,1237,correct,NA,Jan 27 2023 15:05:17,Agnieszka,1
6085a,6085a_session1_listb_naming_trial059_hair.wav,1,b,naming,59,hair,934,correct,NA,Jan 27 2023 15:05:25,Agnieszka,1
6085a,6085a_session1_listb_naming_trial060_car.wav,1,b,naming,60,car,880,correct,NA,Jan 27 2023 15:05:32,Agnieszka,1
6085a,6085a_session1_listb_naming_trial061_belt.wav,1,b,naming,61,belt,1030,correct,NA,Jan 27 2023 15:05:42,Agnieszka,1
6085a,6085a_session1_listb_naming_trial062_pizza.wav,1,b,naming,62,pizza,934,correct,NA,Jan 27 2023 15:05:49,Agnieszka,1
6085a,6085a_session1_listb_naming_trial063_roof.wav,1,b,naming,63,roof,1422,correct,NA,Jan 27 2023 15:05:57,Agnieszka,1
6085a,6085a_session1_listb_naming_trial064_spider.wav,1,b,naming,64,spider,1463,correct,NA,Jan 27 2023 15:06:05,Agnieszka,1
6085a,6085a_session1_listb_naming_trial065_door.wav,1,b,naming,65,door,982,correct,NA,Jan 27 2023 15:06:15,Agnieszka,1
6085a,6085a_session1_listb_naming_trial066_crown.wav,1,b,naming,66,crown,938,correct,NA,Jan 27 2023 15:06:27,Agnieszka,1
6085a,6085a_session1_listb_naming_trial067_guitar.wav,1,b,naming,67,guitar,871,correct,NA,Jan 27 2023 15:06:35,Agnieszka,1
6085a,6085a_session1_listb_naming_trial068_vein.wav,1,b,naming,68,vein,-1,wrong_word,NA,Jan 27 2023 15:06:42,Agnieszka,1
6085a,6085a_session1_listb_naming_trial069_lemon.wav,1,b,naming,69,lemon,1084,correct,NA,Jan 27 2023 15:06:50,Agnieszka,1
6085a,6085a_session1_listb_naming_trial070_gun.wav,1,b,naming,70,gun,906,correct,NA,Jan 27 2023 15:06:58,Agnieszka,1
6085a,6085a_session1_listb_naming_trial071_microphone.wav,1,b,naming,71,microphone,1084,correct,NA,Jan 27 2023 15:07:08,Agnieszka,1
6085a,6085a_session1_listb_naming_trial072_chain.wav,1,b,naming,72,chain,874,correct,NA,Jan 27 2023 15:07:15,Agnieszka,1
6085a,6085a_session1_listb_naming_trial073_well.wav,1,b,naming,73,well,1347,correct,NA,Jan 27 2023 15:07:25,Agnieszka,1
6085a,6085a_session1_listb_naming_trial074_scarecrow.wav,1,b,naming,74,scarecrow,896,correct,NA,Jan 27 2023 15:07:32,Agnieszka,1
6085a,6085a_session1_listb_naming_trial075_parachute.wav,1,b,naming,75,parachute,1428,correct,NA,Jan 27 2023 15:07:38,Agnieszka,1
6085a,6085a_session1_listb_naming_trial076_sock.wav,1,b,naming,76,sock,804,correct,NA,Jan 27 2023 15:07:46,Agnieszka,1
6085a,6085a_session1_listb_naming_trial077_beard.wav,1,b,naming,77,beard,1103,correct,NA,Jan 27 2023 15:07:54,Agnieszka,1
6085a,6085a_session1_listb_naming_trial078_pool.wav,1,b,naming,78,pool,-1,wrong_word,NA,Jan 27 2023 15:07:59,Agnieszka,1
6085a,6085a_session1_listb_naming_trial079_volcano.wav,1,b,naming,79,volcano,1157,correct,NA,Jan 27 2023 15:08:05,Agnieszka,1
6085a,6085a_session1_listb_naming_trial080_iron.wav,1,b,naming,80,iron,848,correct,NA,Jan 27 2023 15:08:14,Agnieszka,1
6085a,6085a_session1_listb_naming_trial081_screwdriver.wav,1,b,naming,81,screwdriver,1380,correct,NA,Jan 27 2023 15:08:24,Agnieszka,1
6085a,6085a_session1_listb_naming_trial082_diamond.wav,1,b,naming,82,diamond,1438,correct,NA,Jan 27 2023 15:08:30,Agnieszka,1
6085a,6085a_session1_listb_naming_trial083_finger.wav,1,b,naming,83,finger,1341,correct,NA,Jan 27 2023 15:08:37,Agnieszka,1
6085a,6085a_session1_listb_naming_trial084_lab.wav,1,b,naming,84,lab,-1,no_resp,NA,Jan 27 2023 15:08:44,Agnieszka,1
6085a,6085a_session1_listb_naming_trial085_cigarette.wav,1,b,naming,85,cigarette,-1,disfluency,NA,Jan 27 2023 15:08:53,Agnieszka,1
6085a,6085a_session1_listb_naming_trial086_fist.wav,1,b,naming,86,fist,1148,correct,NA,Jan 27 2023 15:09:00,Agnieszka,1
6085a,6085a_session1_listb_naming_trial087_skull.wav,1,b,naming,87,skull,794,correct,NA,Jan 27 2023 15:09:07,Agnieszka,1
6085a,6085a_session1_listb_naming_trial088_bat.wav,1,b,naming,88,bat,874,correct,NA,Jan 27 2023 15:09:16,Agnieszka,1
6085a,6085a_session1_listb_naming_trial089_watch.wav,1,b,naming,89,watch,807,correct,NA,Jan 27 2023 15:09:23,Agnieszka,1
6085a,6085a_session1_listb_naming_trial090_face.wav,1,b,naming,90,face,915,correct,NA,Jan 27 2023 15:09:31,Agnieszka,1
6085a,6085a_session1_listb_naming_trial091_lion.wav,1,b,naming,91,lion,947,correct,NA,Jan 27 2023 15:09:38,Agnieszka,1
6085a,6085a_session1_listb_naming_trial092_butcher.wav,1,b,naming,92,butcher,960,correct,NA,Jan 27 2023 15:09:47,Agnieszka,1
6085a,6085a_session1_listb_naming_trial093_bed.wav,1,b,naming,93,bed,880,correct,NA,Jan 27 2023 15:09:56,Agnieszka,1
6085a,6085a_session1_listb_naming_trial094_witch.wav,1,b,naming,94,witch,928,correct,NA,Jan 27 2023 15:10:03,Agnieszka,1
6085a,6085a_session1_listb_naming_trial095_camera.wav,1,b,naming,95,camera,918,correct,NA,Jan 27 2023 15:10:20,Agnieszka,1
6085a,6085a_session1_listb_naming_trial096_torch.wav,1,b,naming,96,torch,1369,correct,NA,Jan 27 2023 15:10:27,Agnieszka,1
6085a,6085a_session1_listb_naming_trial097_honey.wav,1,b,naming,97,honey,922,correct,NA,Jan 27 2023 15:10:34,Agnieszka,1
6085a,6085a_session1_listb_naming_trial098_bra.wav,1,b,naming,98,bra,877,correct,NA,Jan 27 2023 15:10:42,Agnieszka,1
6085a,6085a_session1_listb_naming_trial099_knee.wav,1,b,naming,99,knee,1307,correct,NA,Jan 27 2023 15:10:50,Agnieszka,1
6085a,6085a_session1_listb_naming_trial100_waiter.wav,1,b,naming,100,waiter,1014,correct,NA,Jan 27 2023 15:10:58,Agnieszka,1
6085a,6085a_session1_listb_naming_trial101_skateboard.wav,1,b,naming,101,skateboard,1425,correct,NA,Jan 27 2023 15:11:05,Agnieszka,1
6085a,6085a_session1_listb_naming_trial102_nose.wav,1,b,naming,102,nose,973,correct,NA,Jan 27 2023 15:11:13,Agnieszka,1
6085a,6085a_session1_listb_naming_trial103_mask.wav,1,b,naming,103,mask,1307,correct,NA,Jan 27 2023 15:11:21,Agnieszka,1
6085a,6085a_session1_listb_naming_trial104_coffin.wav,1,b,naming,104,coffin,848,correct,NA,Jan 27 2023 15:11:31,Agnieszka,1
6085a,6085a_session1_listb_naming_trial105_cactus.wav,1,b,naming,105,cactus,1164,correct,NA,Jan 27 2023 15:11:44,Agnieszka,1
6085a,6085a_session1_listb_naming_trial106_tooth.wav,1,b,naming,106,tooth,1084,correct,NA,Jan 27 2023 15:11:53,Agnieszka,1
6085a,6085a_session1_listb_naming_trial107_chair.wav,1,b,naming,107,chair,817,correct,NA,Jan 27 2023 15:12:01,Agnieszka,1
6085a,6085a_session1_listb_naming_trial108_handle.wav,1,b,naming,108,handle,982,correct,NA,Jan 27 2023 15:12:09,Agnieszka,1
6085a,6085a_session1_listb_naming_trial109_pirate.wav,1,b,naming,109,pirate,855,correct,NA,Jan 27 2023 15:12:19,Agnieszka,1
6085a,6085a_session1_listb_naming_trial110_stapler.wav,1,b,naming,110,stapler,899,correct,NA,Jan 27 2023 15:12:28,Agnieszka,1
6085a,6085a_session1_listb_naming_trial111_earring.wav,1,b,naming,111,earring,1167,correct,NA,Jan 27 2023 15:12:36,Agnieszka,1
6085a,6085a_session1_listb_naming_trial112_scarf.wav,1,b,naming,112,scarf,785,correct,NA,Jan 27 2023 15:12:44,Agnieszka,1
6085a,6085a_session1_listb_naming_trial113_dragon.wav,1,b,naming,113,dragon,1804,correct,NA,Jan 27 2023 15:12:57,Agnieszka,1
6085a,6085a_session1_listb_naming_trial114_bedroom.wav,1,b,naming,114,bedroom,1024,correct,NA,Jan 27 2023 15:13:05,Agnieszka,1
6085a,6085a_session1_listb_naming_trial115_cage.wav,1,b,naming,115,cage,950,correct,NA,Jan 27 2023 15:13:16,Agnieszka,1
6085a,6085a_session1_listb_naming_trial116_man.wav,1,b,naming,116,man,922,correct,NA,Jan 27 2023 15:13:23,Agnieszka,1
6085a,6085a_session1_listb_naming_trial117_strawberry.wav,1,b,naming,117,strawberry,734,correct,NA,Jan 27 2023 15:13:34,Agnieszka,1
6085a,6085a_session1_listb_naming_trial118_fruit.wav,1,b,naming,118,fruit,836,correct,NA,Jan 27 2023 15:13:43,Agnieszka,1
6085a,6085a_session1_listb_naming_trial119_button.wav,1,b,naming,119,button,1132,correct,NA,Jan 27 2023 15:13:49,Agnieszka,1
6085a,6085a_session1_listb_naming_trial120_farm.wav,1,b,naming,120,farm,1141,correct,NA,Jan 27 2023 15:13:57,Agnieszka,1
6085a,6085a_session1_listb_naming_trial121_harp.wav,1,b,naming,121,harp,-1,wrong_word,NA,Jan 27 2023 15:14:06,Agnieszka,1
6085a,6085a_session1_listb_naming_trial122_snail.wav,1,b,naming,122,snail,-1,wrong_word,NA,Jan 27 2023 15:14:14,Agnieszka,1
6085a,6085a_session1_listb_naming_trial123_dog.wav,1,b,naming,123,dog,829,correct,NA,Jan 27 2023 15:14:23,Agnieszka,1
6085a,6085a_session1_listb_naming_trial124_duck.wav,1,b,naming,124,duck,890,correct,NA,Jan 27 2023 15:14:30,Agnieszka,1
6085a,6085a_session1_listb_naming_trial125_baby.wav,1,b,naming,125,baby,829,correct,NA,Jan 27 2023 15:14:38,Agnieszka,1
6085a,6085a_session1_listb_naming_trial126_printer.wav,1,b,naming,126,printer,1043,correct,NA,Jan 27 2023 15:14:45,Agnieszka,1
6085a,6085a_session1_listb_naming_trial127_ankle.wav,1,b,naming,127,ankle,2632,uncertain,correct but slightly cut off,Jan 27 2023 15:15:01,Agnieszka,1
6085a,6085a_session1_listb_naming_trial128_burger.wav,1,b,naming,128,burger,1954,correct,NA,Jan 27 2023 15:15:09,Agnieszka,1
6085a,6085a_session1_listb_naming_trial129_foot.wav,1,b,naming,129,foot,737,correct,NA,Jan 27 2023 15:15:15,Agnieszka,1
6085a,6085a_session1_listb_naming_trial130_asparagus.wav,1,b,naming,130,asparagus,1403,correct,NA,Jan 27 2023 15:15:27,Agnieszka,1
6085a,6085a_session1_listb_naming_trial131_choir.wav,1,b,naming,131,choir,918,correct,NA,Jan 27 2023 15:15:40,Agnieszka,1
6085a,6085a_session1_listb_naming_trial132_lizard.wav,1,b,naming,132,lizard,915,correct,NA,Jan 27 2023 15:15:49,Agnieszka,1
6085a,6085a_session1_listb_naming_trial133_house.wav,1,b,naming,133,house,1071,correct,NA,Jan 27 2023 15:16:05,Agnieszka,1
6085a,6085a_session1_listb_naming_trial134_spoon.wav,1,b,naming,134,spoon,836,correct,NA,Jan 27 2023 15:16:12,Agnieszka,1
6085a,6085a_session1_listb_naming_trial135_broom.wav,1,b,naming,135,broom,1103,correct,NA,Jan 27 2023 15:16:19,Agnieszka,1
6085a,6085a_session1_listb_naming_trial136_shadow.wav,1,b,naming,136,shadow,1301,correct,NA,Jan 27 2023 15:16:25,Agnieszka,1
6085a,6085a_session1_listb_naming_trial137_hand.wav,1,b,naming,137,hand,855,correct,NA,Jan 27 2023 15:16:33,Agnieszka,1
6085a,6085a_session1_listb_naming_trial138_sheep.wav,1,b,naming,138,sheep,822,correct,NA,Jan 27 2023 15:16:42,Agnieszka,1
6085a,6085a_session1_listb_naming_trial139_nun.wav,1,b,naming,139,nun,1753,correct,NA,Jan 27 2023 15:16:49,Agnieszka,1
6085a,6085a_session1_listb_naming_trial140_football.wav,1,b,naming,140,football,1208,correct,NA,Jan 27 2023 15:16:57,Agnieszka,1
6085a,6085a_session1_listb_naming_trial141_feather.wav,1,b,naming,141,feather,906,correct,NA,Jan 27 2023 15:17:11,Agnieszka,1
6085a,6085a_session1_listb_naming_trial142_nurse.wav,1,b,naming,142,nurse,-1,wrong_word,NA,Jan 27 2023 15:17:17,Agnieszka,1
6085a,6085a_session1_listb_naming_trial143_cowboy.wav,1,b,naming,143,cowboy,1399,correct,NA,Jan 27 2023 15:17:25,Agnieszka,1
6085a,6085a_session1_listb_naming_trial144_road.wav,1,b,naming,144,road,982,correct,NA,Jan 27 2023 15:17:33,Agnieszka,1
6085a,6085a_session1_listb_naming_trial145_eye.wav,1,b,naming,145,eye,836,correct,NA,Jan 27 2023 15:17:41,Agnieszka,1
6085a,6085a_session1_listb_naming_trial146_parrot.wav,1,b,naming,146,parrot,969,correct,NA,Jan 27 2023 15:17:48,Agnieszka,1
6085a,6085a_session1_listb_naming_trial147_desert.wav,1,b,naming,147,desert,1705,correct,NA,Jan 27 2023 15:17:55,Agnieszka,1
6085a,6085a_session1_listb_naming_trial148_television.wav,1,b,naming,148,television,759,correct,NA,Jan 27 2023 15:18:03,Agnieszka,1
6085a,6085a_session1_listb_naming_trial149_bin.wav,1,b,naming,149,bin,922,correct,NA,Jan 27 2023 15:18:10,Agnieszka,1
6085a,6085a_session1_listb_naming_trial150_calendar.wav,1,b,naming,150,calendar,887,correct,NA,Jan 27 2023 15:18:18,Agnieszka,1
