Participant_ID,File_Name,Session,List,Type_Trial,Trial_Nbr,Target,RT,Response_Trial,Comment,Date_Correction,Assessor_Name,Processed
5efde,5efde_session1_listb_speeded_trial001_shadow.wav,1,b,peeded,1,shadow,1115,correct,NA,Apr 14 2023 17:19:49,Agnieszka,1
5efde,5efde_session1_listb_speeded_trial002_pilot.wav,1,b,peeded,2,pilot,879,correct,NA,Apr 14 2023 17:19:59,Agnieszka,1
5efde,5efde_session1_listb_speeded_trial003_football.wav,1,b,peeded,3,football,-1,wrong_word,NA,Apr 14 2023 17:20:06,Agnieszka,1
5efde,5efde_session1_listb_speeded_trial004_torch.wav,1,b,peeded,4,torch,763,correct,NA,Apr 14 2023 17:20:19,Agnieszka,1
5efde,5efde_session1_listb_speeded_trial005_bed.wav,1,b,peeded,5,bed,734,correct,NA,Apr 14 2023 17:20:30,Agnieszka,1
5efde,5efde_session1_listb_speeded_trial006_foot.wav,1,b,peeded,6,foot,670,correct,NA,Apr 14 2023 17:20:54,Agnieszka,1
5efde,5efde_session1_listb_speeded_trial007_volcano.wav,1,b,peeded,7,volcano,776,correct,NA,Apr 14 2023 17:21:13,Agnieszka,1
5efde,5efde_session1_listb_speeded_trial008_roof.wav,1,b,peeded,8,roof,898,correct,NA,Apr 14 2023 17:21:19,Agnieszka,1
5efde,5efde_session1_listb_speeded_trial009_honey.wav,1,b,peeded,9,honey,714,correct,NA,Apr 14 2023 17:21:29,Agnieszka,1
5efde,5efde_session1_listb_speeded_trial010_vein.wav,1,b,peeded,10,vein,839,correct,NA,Apr 14 2023 17:21:36,Agnieszka,1
5efde,5efde_session1_listb_speeded_trial011_lemon.wav,1,b,peeded,11,lemon,770,correct,NA,Apr 14 2023 17:21:49,Agnieszka,1
5efde,5efde_session1_listb_speeded_trial012_bedroom.wav,1,b,peeded,12,bedroom,1398,correct,ending cut off,Apr 14 2023 17:21:59,Agnieszka,1
5efde,5efde_session1_listb_speeded_trial013_glasses.wav,1,b,peeded,13,glasses,754,correct,NA,Apr 14 2023 17:22:13,Agnieszka,1
5efde,5efde_session1_listb_speeded_trial014_baby.wav,1,b,peeded,14,baby,709,correct,NA,Apr 14 2023 17:22:18,Agnieszka,1
5efde,5efde_session1_listb_speeded_trial015_finger.wav,1,b,peeded,15,finger,901,correct,NA,Apr 14 2023 17:22:29,Agnieszka,1
5efde,5efde_session1_listb_speeded_trial016_door.wav,1,b,peeded,16,door,741,correct,NA,Apr 14 2023 17:22:36,Agnieszka,1
5efde,5efde_session1_listb_speeded_trial017_witch.wav,1,b,peeded,17,witch,768,correct,NA,Apr 14 2023 17:22:42,Agnieszka,1
5efde,5efde_session1_listb_speeded_trial018_nurse.wav,1,b,peeded,18,nurse,930,correct,NA,Apr 14 2023 17:22:52,Agnieszka,1
5efde,5efde_session1_listb_speeded_trial019_fire.wav,1,b,peeded,19,fire,916,correct,NA,Apr 14 2023 17:23:01,Agnieszka,1
5efde,5efde_session1_listb_speeded_trial020_coffee.wav,1,b,peeded,20,coffee,906,correct,NA,Apr 14 2023 17:23:17,Agnieszka,1
5efde,5efde_session1_listb_speeded_trial021_heart.wav,1,b,peeded,21,heart,732,correct,NA,Apr 14 2023 17:23:27,Agnieszka,1
5efde,5efde_session1_listb_speeded_trial022_well.wav,1,b,peeded,22,well,930,correct,NA,Apr 14 2023 17:23:35,Agnieszka,1
5efde,5efde_session1_listb_speeded_trial023_ankle.wav,1,b,peeded,23,ankle,909,correct,NA,Apr 14 2023 17:23:43,Agnieszka,1
5efde,5efde_session1_listb_speeded_trial024_lion.wav,1,b,peeded,24,lion,783,correct,NA,Apr 14 2023 17:23:48,Agnieszka,1
5efde,5efde_session1_listb_speeded_trial025_beard.wav,1,b,peeded,25,beard,817,correct,NA,Apr 14 2023 17:23:54,Agnieszka,1
5efde,5efde_session1_listb_speeded_trial026_dentist.wav,1,b,peeded,26,dentist,1038,correct,ending cut off,Apr 14 2023 17:24:04,Agnieszka,1
5efde,5efde_session1_listb_speeded_trial027_glass.wav,1,b,peeded,27,glass,871,correct,NA,Apr 14 2023 17:24:10,Agnieszka,1
5efde,5efde_session1_listb_speeded_trial028_stapler.wav,1,b,peeded,28,stapler,754,correct,NA,Apr 14 2023 17:24:17,Agnieszka,1
5efde,5efde_session1_listb_speeded_trial029_nun.wav,1,b,peeded,29,nun,1039,correct,NA,Apr 14 2023 17:24:25,Agnieszka,1
5efde,5efde_session1_listb_speeded_trial030_farm.wav,1,b,peeded,30,farm,950,correct,NA,Apr 14 2023 17:24:32,Agnieszka,1
5efde,5efde_session1_listb_speeded_trial031_cage.wav,1,b,peeded,31,cage,947,correct,NA,Apr 14 2023 17:24:39,Agnieszka,1
5efde,5efde_session1_listb_speeded_trial032_umbrella.wav,1,b,peeded,32,umbrella,849,correct,NA,Apr 14 2023 17:24:50,Agnieszka,1
5efde,5efde_session1_listb_speeded_trial033_ambulance.wav,1,b,peeded,33,ambulance,960,correct,NA,Apr 14 2023 17:24:58,Agnieszka,1
5efde,5efde_session1_listb_speeded_trial034_scarecrow.wav,1,b,peeded,34,scarecrow,1056,correct,NA,Apr 14 2023 17:25:06,Agnieszka,1
5efde,5efde_session1_listb_speeded_trial035_broom.wav,1,b,peeded,35,broom,1220,correct,NA,Apr 14 2023 17:25:13,Agnieszka,1
5efde,5efde_session1_listb_speeded_trial036_sock.wav,1,b,peeded,36,sock,877,correct,NA,Apr 14 2023 17:25:25,Agnieszka,1
5efde,5efde_session1_listb_speeded_trial037_shark.wav,1,b,peeded,37,shark,847,correct,NA,Apr 14 2023 17:25:31,Agnieszka,1
5efde,5efde_session1_listb_speeded_trial038_eye.wav,1,b,peeded,38,eye,766,correct,NA,Apr 14 2023 17:25:42,Agnieszka,1
5efde,5efde_session1_listb_speeded_trial039_mirror.wav,1,b,peeded,39,mirror,-1,uncertain,"cut off after 'mir', also possibly laughing?",Apr 14 2023 17:26:36,Agnieszka,1
5efde,5efde_session1_listb_speeded_trial040_chain.wav,1,b,peeded,40,chain,928,correct,NA,Apr 14 2023 17:26:46,Agnieszka,1
5efde,5efde_session1_listb_speeded_trial041_belt.wav,1,b,peeded,41,belt,994,correct,NA,Apr 14 2023 17:26:52,Agnieszka,1
5efde,5efde_session1_listb_speeded_trial042_trumpet.wav,1,b,peeded,42,trumpet,1065,correct,NA,Apr 14 2023 17:27:01,Agnieszka,1
5efde,5efde_session1_listb_speeded_trial043_duck.wav,1,b,peeded,43,duck,793,correct,NA,Apr 14 2023 17:27:08,Agnieszka,1
5efde,5efde_session1_listb_speeded_trial044_calculator.wav,1,b,peeded,44,calculator,-1,no_resp,NA,Apr 14 2023 17:27:13,Agnieszka,1
5efde,5efde_session1_listb_speeded_trial045_ring.wav,1,b,peeded,45,ring,761,correct,NA,Apr 14 2023 17:27:21,Agnieszka,1
5efde,5efde_session1_listb_speeded_trial046_handle.wav,1,b,peeded,46,handle,894,correct,NA,Apr 14 2023 17:27:29,Agnieszka,1
5efde,5efde_session1_listb_speeded_trial047_condom.wav,1,b,peeded,47,condom,818,correct,NA,Apr 14 2023 17:27:42,Agnieszka,1
5efde,5efde_session1_listb_speeded_trial048_screwdriver.wav,1,b,peeded,48,screwdriver,-1,wrong_word,NA,Apr 14 2023 17:27:48,Agnieszka,1
5efde,5efde_session1_listb_speeded_trial049_needle.wav,1,b,peeded,49,needle,926,correct,NA,Apr 14 2023 17:27:53,Agnieszka,1
5efde,5efde_session1_listb_speeded_trial050_guitar.wav,1,b,peeded,50,guitar,1110,correct,NA,Apr 14 2023 17:28:07,Agnieszka,1
5efde,5efde_session1_listb_speeded_trial051_burger.wav,1,b,peeded,51,burger,798,correct,NA,Apr 14 2023 17:28:13,Agnieszka,1
5efde,5efde_session1_listb_speeded_trial052_king.wav,1,b,peeded,52,king,859,correct,NA,Apr 14 2023 17:28:22,Agnieszka,1
5efde,5efde_session1_listb_speeded_trial053_coconut.wav,1,b,peeded,53,coconut,827,correct,NA,Apr 14 2023 17:28:50,Agnieszka,1
5efde,5efde_session1_listb_speeded_trial054_cowboy.wav,1,b,peeded,54,cowboy,925,correct,NA,Apr 14 2023 17:29:02,Agnieszka,1
5efde,5efde_session1_listb_speeded_trial055_asparagus.wav,1,b,peeded,55,asparagus,803,correct,NA,Apr 14 2023 17:30:40,Agnieszka,1
5efde,5efde_session1_listb_speeded_trial056_fruit.wav,1,b,peeded,56,fruit,727,correct,NA,Apr 14 2023 17:30:59,Agnieszka,1
5efde,5efde_session1_listb_speeded_trial057_penguin.wav,1,b,peeded,57,penguin,731,correct,NA,Apr 14 2023 17:31:14,Agnieszka,1
5efde,5efde_session1_listb_speeded_trial058_skateboard.wav,1,b,peeded,58,skateboard,807,correct,NA,Apr 14 2023 17:31:33,Agnieszka,1
5efde,5efde_session1_listb_speeded_trial059_elephant.wav,1,b,peeded,59,elephant,1051,correct,NA,Apr 14 2023 17:31:48,Agnieszka,1
5efde,5efde_session1_listb_speeded_trial060_brain.wav,1,b,peeded,60,brain,699,correct,NA,Apr 14 2023 17:32:03,Agnieszka,1
5efde,5efde_session1_listb_speeded_trial061_road.wav,1,b,peeded,61,road,827,correct,NA,Apr 14 2023 17:32:15,Agnieszka,1
5efde,5efde_session1_listb_speeded_trial062_frog.wav,1,b,peeded,62,frog,704,correct,NA,Apr 14 2023 17:32:33,Agnieszka,1
5efde,5efde_session1_listb_speeded_trial063_television.wav,1,b,peeded,63,television,-1,wrong_word,NA,Apr 14 2023 17:33:34,Agnieszka,1
5efde,5efde_session1_listb_speeded_trial064_iron.wav,1,b,peeded,64,iron,1092,correct,NA,Apr 14 2023 17:33:54,Agnieszka,1
5efde,5efde_session1_listb_speeded_trial065_fan.wav,1,b,peeded,65,fan,1060,correct,NA,Apr 14 2023 17:34:12,Agnieszka,1
5efde,5efde_session1_listb_speeded_trial066_bible.wav,1,b,peeded,66,bible,876,correct,NA,Apr 14 2023 17:34:24,Agnieszka,1
5efde,5efde_session1_listb_speeded_trial067_broccoli.wav,1,b,peeded,67,broccoli,938,correct,NA,Apr 14 2023 17:34:29,Agnieszka,1
5efde,5efde_session1_listb_speeded_trial068_strawberry.wav,1,b,peeded,68,strawberry,773,correct,NA,Apr 14 2023 17:34:35,Agnieszka,1
5efde,5efde_session1_listb_speeded_trial069_moustache.wav,1,b,peeded,69,moustache,857,correct,NA,Apr 14 2023 17:34:42,Agnieszka,1
5efde,5efde_session1_listb_speeded_trial070_cloud.wav,1,b,peeded,70,cloud,-1,no_resp,NA,Apr 14 2023 17:34:47,Agnieszka,1
5efde,5efde_session1_listb_speeded_trial071_cone.wav,1,b,peeded,71,cone,1302,correct,NA,Apr 14 2023 17:34:54,Agnieszka,1
5efde,5efde_session1_listb_speeded_trial072_printer.wav,1,b,peeded,72,printer,1006,correct,NA,Apr 14 2023 17:35:03,Agnieszka,1
5efde,5efde_session1_listb_speeded_trial073_butcher.wav,1,b,peeded,73,butcher,894,correct,NA,Apr 14 2023 17:35:32,Agnieszka,1
5efde,5efde_session1_listb_speeded_trial074_face.wav,1,b,peeded,74,face,918,correct,NA,Apr 14 2023 17:35:39,Agnieszka,1
5efde,5efde_session1_listb_speeded_trial075_car.wav,1,b,peeded,75,car,1088,correct,NA,Apr 14 2023 17:35:48,Agnieszka,1
5efde,5efde_session1_listb_speeded_trial076_skeleton.wav,1,b,peeded,76,skeleton,743,correct,NA,Apr 14 2023 17:35:54,Agnieszka,1
5efde,5efde_session1_listb_speeded_trial077_caravan.wav,1,b,peeded,77,caravan,1051,correct,NA,Apr 14 2023 17:36:00,Agnieszka,1
5efde,5efde_session1_listb_speeded_trial078_bin.wav,1,b,peeded,78,bin,764,correct,NA,Apr 14 2023 17:36:06,Agnieszka,1
5efde,5efde_session1_listb_speeded_trial079_calendar.wav,1,b,peeded,79,calendar,839,correct,NA,Apr 14 2023 17:36:13,Agnieszka,1
5efde,5efde_session1_listb_speeded_trial080_airport.wav,1,b,peeded,80,airport,1157,correct,NA,Apr 14 2023 17:36:18,Agnieszka,1
5efde,5efde_session1_listb_speeded_trial081_knee.wav,1,b,peeded,81,knee,888,correct,NA,Apr 14 2023 17:36:36,Agnieszka,1
5efde,5efde_session1_listb_speeded_trial082_cactus.wav,1,b,peeded,82,cactus,-1,disfluency,NA,Apr 14 2023 17:36:42,Agnieszka,1
5efde,5efde_session1_listb_speeded_trial083_dinosaur.wav,1,b,peeded,83,dinosaur,847,correct,NA,Apr 14 2023 17:36:48,Agnieszka,1
5efde,5efde_session1_listb_speeded_trial084_coffin.wav,1,b,peeded,84,coffin,786,correct,NA,Apr 14 2023 17:37:00,Agnieszka,1
5efde,5efde_session1_listb_speeded_trial085_leaf.wav,1,b,peeded,85,leaf,783,correct,NA,Apr 14 2023 17:37:05,Agnieszka,1
5efde,5efde_session1_listb_speeded_trial086_giraffe.wav,1,b,peeded,86,giraffe,1102,correct,NA,Apr 14 2023 17:37:11,Agnieszka,1
5efde,5efde_session1_listb_speeded_trial087_swimming.wav,1,b,peeded,87,swimming,-1,wrong_word,NA,Apr 14 2023 17:37:16,Agnieszka,1
5efde,5efde_session1_listb_speeded_trial088_boomerang.wav,1,b,peeded,88,boomerang,1110,correct,NA,Apr 14 2023 17:37:25,Agnieszka,1
5efde,5efde_session1_listb_speeded_trial089_apron.wav,1,b,peeded,89,apron,920,correct,NA,Apr 14 2023 17:37:30,Agnieszka,1
5efde,5efde_session1_listb_speeded_trial090_house.wav,1,b,peeded,90,house,1014,correct,NA,Apr 14 2023 17:37:39,Agnieszka,1
5efde,5efde_session1_listb_speeded_trial091_crown.wav,1,b,peeded,91,crown,803,correct,NA,Apr 14 2023 17:37:47,Agnieszka,1
5efde,5efde_session1_listb_speeded_trial092_girl.wav,1,b,peeded,92,girl,832,correct,NA,Apr 14 2023 17:37:52,Agnieszka,1
5efde,5efde_session1_listb_speeded_trial093_thermometer.wav,1,b,peeded,93,thermometer,862,correct,NA,Apr 14 2023 17:37:59,Agnieszka,1
5efde,5efde_session1_listb_speeded_trial094_dog.wav,1,b,peeded,94,dog,764,correct,NA,Apr 14 2023 17:38:04,Agnieszka,1
5efde,5efde_session1_listb_speeded_trial095_jar.wav,1,b,peeded,95,jar,795,correct,NA,Apr 14 2023 17:38:10,Agnieszka,1
5efde,5efde_session1_listb_speeded_trial096_desert.wav,1,b,peeded,96,desert,1110,correct,NA,Apr 14 2023 17:38:17,Agnieszka,1
5efde,5efde_session1_listb_speeded_trial097_tooth.wav,1,b,peeded,97,tooth,791,correct,NA,Apr 14 2023 17:38:27,Agnieszka,1
5efde,5efde_session1_listb_speeded_trial098_hand.wav,1,b,peeded,98,hand,690,correct,NA,Apr 14 2023 17:38:34,Agnieszka,1
5efde,5efde_session1_listb_speeded_trial099_microphone.wav,1,b,peeded,99,microphone,908,correct,NA,Apr 14 2023 17:38:40,Agnieszka,1
5efde,5efde_session1_listb_speeded_trial100_pool.wav,1,b,peeded,100,pool,697,correct,NA,Apr 14 2023 17:38:45,Agnieszka,1
5efde,5efde_session1_listb_speeded_trial101_pirate.wav,1,b,peeded,101,pirate,1447,correct,last syllable cut off,Apr 14 2023 17:39:01,Agnieszka,1
5efde,5efde_session1_listb_speeded_trial102_waiter.wav,1,b,peeded,102,waiter,-1,no_resp,NA,Apr 14 2023 17:39:07,Agnieszka,1
5efde,5efde_session1_listb_speeded_trial103_lizard.wav,1,b,peeded,103,lizard,1242,correct,NA,Apr 14 2023 17:39:21,Agnieszka,1
5efde,5efde_session1_listb_speeded_trial104_shirt.wav,1,b,peeded,104,shirt,936,correct,NA,Apr 14 2023 17:39:26,Agnieszka,1
5efde,5efde_session1_listb_speeded_trial105_gun.wav,1,b,peeded,105,gun,869,correct,NA,Apr 14 2023 17:39:34,Agnieszka,1
5efde,5efde_session1_listb_speeded_trial106_bat.wav,1,b,peeded,106,bat,786,correct,NA,Apr 14 2023 17:39:40,Agnieszka,1
5efde,5efde_session1_listb_speeded_trial107_telephone.wav,1,b,peeded,107,telephone,-1,wrong_word,NA,Apr 14 2023 17:39:45,Agnieszka,1
5efde,5efde_session1_listb_speeded_trial108_skull.wav,1,b,peeded,108,skull,763,correct,NA,Apr 14 2023 17:39:55,Agnieszka,1
5efde,5efde_session1_listb_speeded_trial109_scarf.wav,1,b,peeded,109,scarf,837,correct,NA,Apr 14 2023 17:40:13,Agnieszka,1
5efde,5efde_session1_listb_speeded_trial110_cigarette.wav,1,b,peeded,110,cigarette,785,correct,NA,Apr 14 2023 17:40:21,Agnieszka,1
5efde,5efde_session1_listb_speeded_trial111_tank.wav,1,b,peeded,111,tank,1243,correct,NA,Apr 14 2023 17:40:28,Agnieszka,1
5efde,5efde_session1_listb_speeded_trial112_mask.wav,1,b,peeded,112,mask,1257,correct,slightly cut off,Apr 14 2023 17:40:41,Agnieszka,1
5efde,5efde_session1_listb_speeded_trial113_spoon.wav,1,b,peeded,113,spoon,675,correct,NA,Apr 14 2023 17:40:48,Agnieszka,1
5efde,5efde_session1_listb_speeded_trial114_hair.wav,1,b,peeded,114,hair,692,correct,NA,Apr 14 2023 17:40:56,Agnieszka,1
5efde,5efde_session1_listb_speeded_trial115_lab.wav,1,b,peeded,115,lab,1329,correct,NA,Apr 14 2023 17:41:17,Agnieszka,1
5efde,5efde_session1_listb_speeded_trial116_parachute.wav,1,b,peeded,116,parachute,947,correct,NA,Apr 14 2023 17:41:26,Agnieszka,1
5efde,5efde_session1_listb_speeded_trial117_harp.wav,1,b,peeded,117,harp,850,correct,NA,Apr 14 2023 17:41:34,Agnieszka,1
5efde,5efde_session1_listb_speeded_trial118_watch.wav,1,b,peeded,118,watch,670,correct,NA,Apr 14 2023 17:41:41,Agnieszka,1
5efde,5efde_session1_listb_speeded_trial119_pizza.wav,1,b,peeded,119,pizza,780,correct,NA,Apr 14 2023 17:41:50,Agnieszka,1
5efde,5efde_session1_listb_speeded_trial120_bra.wav,1,b,peeded,120,bra,788,correct,NA,Apr 14 2023 17:41:56,Agnieszka,1
5efde,5efde_session1_listb_speeded_trial121_diamond.wav,1,b,peeded,121,diamond,908,correct,NA,Apr 14 2023 17:42:04,Agnieszka,1
5efde,5efde_session1_listb_speeded_trial122_parrot.wav,1,b,peeded,122,parrot,872,correct,NA,Apr 14 2023 17:42:20,Agnieszka,1
5efde,5efde_session1_listb_speeded_trial123_maze.wav,1,b,peeded,123,maze,837,correct,NA,Apr 14 2023 17:42:26,Agnieszka,1
5efde,5efde_session1_listb_speeded_trial124_camera.wav,1,b,peeded,124,camera,775,correct,NA,Apr 14 2023 17:42:39,Agnieszka,1
5efde,5efde_session1_listb_speeded_trial125_scorpion.wav,1,b,peeded,125,scorpion,1434,correct,cut off after 'sco',Apr 14 2023 17:43:07,Agnieszka,1
5efde,5efde_session1_listb_speeded_trial126_balloon.wav,1,b,peeded,126,balloon,731,correct,NA,Apr 14 2023 17:43:16,Agnieszka,1
5efde,5efde_session1_listb_speeded_trial127_dolphin.wav,1,b,peeded,127,dolphin,975,correct,NA,Apr 14 2023 17:43:25,Agnieszka,1
5efde,5efde_session1_listb_speeded_trial128_man.wav,1,b,peeded,128,man,834,correct,NA,Apr 14 2023 17:43:30,Agnieszka,1
5efde,5efde_session1_listb_speeded_trial129_fist.wav,1,b,peeded,129,fist,967,correct,NA,Apr 14 2023 17:43:43,Agnieszka,1
5efde,5efde_session1_listb_speeded_trial130_devil.wav,1,b,peeded,130,devil,1156,correct,NA,Apr 14 2023 17:43:52,Agnieszka,1
5efde,5efde_session1_listb_speeded_trial131_sheep.wav,1,b,peeded,131,sheep,1127,correct,NA,Apr 14 2023 17:44:01,Agnieszka,1
5efde,5efde_session1_listb_speeded_trial132_wallet.wav,1,b,peeded,132,wallet,768,correct,NA,Apr 14 2023 17:44:11,Agnieszka,1
5efde,5efde_session1_listb_speeded_trial133_banana.wav,1,b,peeded,133,banana,697,correct,NA,Apr 14 2023 17:44:19,Agnieszka,1
5efde,5efde_session1_listb_speeded_trial134_sink.wav,1,b,peeded,134,sink,785,correct,NA,Apr 14 2023 17:44:34,Agnieszka,1
5efde,5efde_session1_listb_speeded_trial135_keyboard.wav,1,b,peeded,135,keyboard,842,correct,NA,Apr 14 2023 17:45:11,Agnieszka,1
5efde,5efde_session1_listb_speeded_trial136_snail.wav,1,b,peeded,136,snail,746,correct,NA,Apr 14 2023 17:45:20,Agnieszka,1
5efde,5efde_session1_listb_speeded_trial137_choir.wav,1,b,peeded,137,choir,975,correct,NA,Apr 14 2023 17:45:27,Agnieszka,1
5efde,5efde_session1_listb_speeded_trial138_nose.wav,1,b,peeded,138,nose,702,correct,NA,Apr 14 2023 17:45:39,Agnieszka,1
5efde,5efde_session1_listb_speeded_trial139_spider.wav,1,b,peeded,139,spider,1019,correct,NA,Apr 14 2023 17:45:46,Agnieszka,1
5efde,5efde_session1_listb_speeded_trial140_chair.wav,1,b,peeded,140,chair,788,correct,NA,Apr 14 2023 17:45:53,Agnieszka,1
5efde,5efde_session1_listb_speeded_trial141_back.wav,1,b,peeded,141,back,737,correct,NA,Apr 14 2023 17:45:59,Agnieszka,1
5efde,5efde_session1_listb_speeded_trial142_earring.wav,1,b,peeded,142,earring,909,correct,NA,Apr 14 2023 17:46:06,Agnieszka,1
5efde,5efde_session1_listb_speeded_trial143_pumpkin.wav,1,b,peeded,143,pumpkin,781,correct,NA,Apr 14 2023 17:46:16,Agnieszka,1
5efde,5efde_session1_listb_speeded_trial144_hedgehog.wav,1,b,peeded,144,hedgehog,726,correct,NA,Apr 14 2023 17:46:21,Agnieszka,1
5efde,5efde_session1_listb_speeded_trial145_button.wav,1,b,peeded,145,button,805,correct,NA,Apr 14 2023 17:46:27,Agnieszka,1
5efde,5efde_session1_listb_speeded_trial146_egg.wav,1,b,peeded,146,egg,856,correct,NA,Apr 14 2023 17:46:35,Agnieszka,1
5efde,5efde_session1_listb_speeded_trial147_cannon.wav,1,b,peeded,147,cannon,987,correct,NA,Apr 14 2023 17:46:42,Agnieszka,1
5efde,5efde_session1_listb_speeded_trial148_dragon.wav,1,b,peeded,148,dragon,1272,correct,NA,Apr 14 2023 17:47:00,Agnieszka,1
5efde,5efde_session1_listb_speeded_trial149_feather.wav,1,b,peeded,149,feather,810,correct,NA,Apr 14 2023 17:47:07,Agnieszka,1
5efde,5efde_session1_listb_speeded_trial150_greenhouse.wav,1,b,peeded,150,greenhouse,1017,correct,NA,Apr 14 2023 17:47:15,Agnieszka,1
