Participant_ID,File_Name,Session,List,Type_Trial,Trial_Nbr,Target,RT,Response_Trial,Comment,Date_Correction,Assessor_Name,Processed
5fed3,5fed3_session1_listb_speeded_trial001_needle.wav,1,b,peeded,1,needle,957,correct,NA,Apr 26 2023 12:50:37,Pam,1
5fed3,5fed3_session1_listb_speeded_trial002_devil.wav,1,b,peeded,2,devil,670,correct,NA,Apr 26 2023 12:51:42,Pam,1
5fed3,5fed3_session1_listb_speeded_trial003_fan.wav,1,b,peeded,3,fan,705,correct,NA,Apr 26 2023 12:51:45,Pam,1
5fed3,5fed3_session1_listb_speeded_trial004_tank.wav,1,b,peeded,4,tank,-1,no_resp,NA,Apr 26 2023 12:51:52,Pam,1
5fed3,5fed3_session1_listb_speeded_trial005_keyboard.wav,1,b,peeded,5,keyboard,727,correct,NA,Apr 26 2023 12:52:12,Pam,1
5fed3,5fed3_session1_listb_speeded_trial006_penguin.wav,1,b,peeded,6,penguin,838,correct,NA,Apr 26 2023 12:54:20,Pam,1
5fed3,5fed3_session1_listb_speeded_trial007_torch.wav,1,b,peeded,7,torch,712,correct,NA,Apr 26 2023 12:54:51,Pam,1
5fed3,5fed3_session1_listb_speeded_trial008_nun.wav,1,b,peeded,8,nun,1018,correct,NA,Apr 26 2023 12:55:01,Pam,1
5fed3,5fed3_session1_listb_speeded_trial009_dog.wav,1,b,peeded,9,dog,612,correct,NA,Apr 26 2023 12:55:05,Pam,1
5fed3,5fed3_session1_listb_speeded_trial010_cloud.wav,1,b,peeded,10,cloud,670,correct,NA,Apr 26 2023 12:55:28,Pam,1
5fed3,5fed3_session1_listb_speeded_trial011_ankle.wav,1,b,peeded,11,ankle,670,correct,NA,Apr 26 2023 12:55:30,Pam,1
5fed3,5fed3_session1_listb_speeded_trial012_spider.wav,1,b,peeded,12,spider,635,correct,NA,Apr 26 2023 12:55:43,Pam,1
5fed3,5fed3_session1_listb_speeded_trial013_camera.wav,1,b,peeded,13,camera,767,correct,NA,Apr 26 2023 12:55:46,Pam,1
5fed3,5fed3_session1_listb_speeded_trial014_waiter.wav,1,b,peeded,14,waiter,701,correct,NA,Apr 26 2023 12:55:50,Pam,1
5fed3,5fed3_session1_listb_speeded_trial015_iron.wav,1,b,peeded,15,iron,723,correct,NA,Apr 26 2023 12:55:53,Pam,1
5fed3,5fed3_session1_listb_speeded_trial016_well.wav,1,b,peeded,16,well,987,correct,NA,Apr 26 2023 12:55:58,Pam,1
5fed3,5fed3_session1_listb_speeded_trial017_skateboard.wav,1,b,peeded,17,skateboard,727,correct,NA,Apr 26 2023 12:56:06,Pam,1
5fed3,5fed3_session1_listb_speeded_trial018_cone.wav,1,b,peeded,18,cone,679,correct,NA,Apr 26 2023 12:56:31,Pam,1
5fed3,5fed3_session1_listb_speeded_trial019_finger.wav,1,b,peeded,19,finger,1044,correct,NA,Apr 26 2023 12:56:50,Pam,1
5fed3,5fed3_session1_listb_speeded_trial020_mask.wav,1,b,peeded,20,mask,709,correct,NA,Apr 26 2023 12:56:56,Pam,1
5fed3,5fed3_session1_listb_speeded_trial021_hedgehog.wav,1,b,peeded,21,hedgehog,608,correct,NA,Apr 26 2023 12:57:54,Pam,1
5fed3,5fed3_session1_listb_speeded_trial022_bin.wav,1,b,peeded,22,bin,723,correct,NA,Apr 26 2023 12:59:48,Pam,1
5fed3,5fed3_session1_listb_speeded_trial023_egg.wav,1,b,peeded,23,egg,806,correct,NA,Apr 26 2023 12:59:59,Pam,1
5fed3,5fed3_session1_listb_speeded_trial024_banana.wav,1,b,peeded,24,banana,820,correct,NA,Apr 26 2023 13:00:05,Pam,1
5fed3,5fed3_session1_listb_speeded_trial025_cowboy.wav,1,b,peeded,25,cowboy,996,correct,NA,Apr 26 2023 13:00:08,Pam,1
5fed3,5fed3_session1_listb_speeded_trial026_giraffe.wav,1,b,peeded,26,giraffe,817,correct,NA,Apr 26 2023 13:00:11,Pam,1
5fed3,5fed3_session1_listb_speeded_trial027_farm.wav,1,b,peeded,27,farm,803,correct,NA,Apr 26 2023 13:00:14,Pam,1
5fed3,5fed3_session1_listb_speeded_trial028_gun.wav,1,b,peeded,28,gun,639,correct,NA,Apr 26 2023 13:00:27,Pam,1
5fed3,5fed3_session1_listb_speeded_trial029_ambulance.wav,1,b,peeded,29,ambulance,903,correct,NA,Apr 26 2023 13:00:32,Pam,1
5fed3,5fed3_session1_listb_speeded_trial030_elephant.wav,1,b,peeded,30,elephant,655,correct,NA,Apr 26 2023 13:01:05,Pam,1
5fed3,5fed3_session1_listb_speeded_trial031_man.wav,1,b,peeded,31,man,1247,correct,NA,Apr 26 2023 13:01:09,Pam,1
5fed3,5fed3_session1_listb_speeded_trial032_asparagus.wav,1,b,peeded,32,asparagus,705,correct,NA,Apr 26 2023 13:01:19,Pam,1
5fed3,5fed3_session1_listb_speeded_trial033_bed.wav,1,b,peeded,33,bed,775,correct,NA,Apr 26 2023 13:01:23,Pam,1
5fed3,5fed3_session1_listb_speeded_trial034_parachute.wav,1,b,peeded,34,parachute,766,correct,NA,Apr 26 2023 13:01:26,Pam,1
5fed3,5fed3_session1_listb_speeded_trial035_baby.wav,1,b,peeded,35,baby,683,correct,NA,Apr 26 2023 13:01:29,Pam,1
5fed3,5fed3_session1_listb_speeded_trial036_button.wav,1,b,peeded,36,button,683,correct,NA,Apr 26 2023 13:01:32,Pam,1
5fed3,5fed3_session1_listb_speeded_trial037_glasses.wav,1,b,peeded,37,glasses,734,correct,NA,Apr 26 2023 13:01:35,Pam,1
5fed3,5fed3_session1_listb_speeded_trial038_ring.wav,1,b,peeded,38,ring,687,correct,NA,Apr 26 2023 13:01:38,Pam,1
5fed3,5fed3_session1_listb_speeded_trial039_pumpkin.wav,1,b,peeded,39,pumpkin,701,correct,NA,Apr 26 2023 13:01:42,Pam,1
5fed3,5fed3_session1_listb_speeded_trial040_scarecrow.wav,1,b,peeded,40,scarecrow,691,correct,NA,Apr 26 2023 13:01:45,Pam,1
5fed3,5fed3_session1_listb_speeded_trial041_bedroom.wav,1,b,peeded,41,bedroom,1353,correct,NA,Apr 26 2023 13:01:48,Pam,1
5fed3,5fed3_session1_listb_speeded_trial042_burger.wav,1,b,peeded,42,burger,731,correct,NA,Apr 26 2023 13:01:52,Pam,1
5fed3,5fed3_session1_listb_speeded_trial043_scorpion.wav,1,b,peeded,43,scorpion,813,correct,NA,Apr 26 2023 13:01:55,Pam,1
5fed3,5fed3_session1_listb_speeded_trial044_vein.wav,1,b,peeded,44,vein,859,correct,NA,Apr 26 2023 13:01:59,Pam,1
5fed3,5fed3_session1_listb_speeded_trial045_house.wav,1,b,peeded,45,house,650,correct,NA,Apr 26 2023 13:02:02,Pam,1
5fed3,5fed3_session1_listb_speeded_trial046_moustache.wav,1,b,peeded,46,moustache,674,correct,NA,Apr 26 2023 13:02:05,Pam,1
5fed3,5fed3_session1_listb_speeded_trial047_telephone.wav,1,b,peeded,47,telephone,768,correct,NA,Apr 26 2023 13:02:07,Pam,1
5fed3,5fed3_session1_listb_speeded_trial048_strawberry.wav,1,b,peeded,48,strawberry,619,correct,NA,Apr 26 2023 13:02:10,Pam,1
5fed3,5fed3_session1_listb_speeded_trial049_broccoli.wav,1,b,peeded,49,broccoli,692,correct,NA,Apr 26 2023 13:02:12,Pam,1
5fed3,5fed3_session1_listb_speeded_trial050_witch.wav,1,b,peeded,50,witch,736,correct,NA,Apr 26 2023 13:02:16,Pam,1
5fed3,5fed3_session1_listb_speeded_trial051_broom.wav,1,b,peeded,51,broom,683,correct,NA,Apr 26 2023 13:02:19,Pam,1
5fed3,5fed3_session1_listb_speeded_trial052_wallet.wav,1,b,peeded,52,wallet,842,correct,NA,Apr 26 2023 13:02:23,Pam,1
5fed3,5fed3_session1_listb_speeded_trial053_knee.wav,1,b,peeded,53,knee,758,correct,NA,Apr 26 2023 13:02:26,Pam,1
5fed3,5fed3_session1_listb_speeded_trial054_feather.wav,1,b,peeded,54,feather,665,correct,NA,Apr 26 2023 13:02:28,Pam,1
5fed3,5fed3_session1_listb_speeded_trial055_balloon.wav,1,b,peeded,55,balloon,652,correct,NA,Apr 26 2023 13:02:31,Pam,1
5fed3,5fed3_session1_listb_speeded_trial056_desert.wav,1,b,peeded,56,desert,899,correct,NA,Apr 26 2023 13:02:36,Pam,1
5fed3,5fed3_session1_listb_speeded_trial057_microphone.wav,1,b,peeded,57,microphone,752,correct,NA,Apr 26 2023 13:02:38,Pam,1
5fed3,5fed3_session1_listb_speeded_trial058_sink.wav,1,b,peeded,58,sink,836,correct,NA,Apr 26 2023 13:02:41,Pam,1
5fed3,5fed3_session1_listb_speeded_trial059_glass.wav,1,b,peeded,59,glass,880,correct,NA,Apr 26 2023 13:02:44,Pam,1
5fed3,5fed3_session1_listb_speeded_trial060_condom.wav,1,b,peeded,60,condom,840,correct,NA,Apr 26 2023 13:02:47,Pam,1
5fed3,5fed3_session1_listb_speeded_trial061_king.wav,1,b,peeded,61,king,806,correct,NA,Apr 26 2023 13:03:11,Pam,1
5fed3,5fed3_session1_listb_speeded_trial062_girl.wav,1,b,peeded,62,girl,820,correct,NA,Apr 26 2023 13:03:15,Pam,1
5fed3,5fed3_session1_listb_speeded_trial063_football.wav,1,b,peeded,63,football,665,correct,NA,Apr 26 2023 13:03:18,Pam,1
5fed3,5fed3_session1_listb_speeded_trial064_cactus.wav,1,b,peeded,64,cactus,687,correct,NA,Apr 26 2023 13:03:21,Pam,1
5fed3,5fed3_session1_listb_speeded_trial065_fruit.wav,1,b,peeded,65,fruit,670,correct,NA,Apr 26 2023 13:03:24,Pam,1
5fed3,5fed3_session1_listb_speeded_trial066_foot.wav,1,b,peeded,66,foot,577,correct,NA,Apr 26 2023 13:03:27,Pam,1
5fed3,5fed3_session1_listb_speeded_trial067_eye.wav,1,b,peeded,67,eye,674,correct,NA,Apr 26 2023 13:03:30,Pam,1
5fed3,5fed3_session1_listb_speeded_trial068_lizard.wav,1,b,peeded,68,lizard,-1,no_resp,NA,Apr 26 2023 13:03:35,Pam,1
5fed3,5fed3_session1_listb_speeded_trial069_lemon.wav,1,b,peeded,69,lemon,751,correct,NA,Apr 26 2023 13:03:38,Pam,1
5fed3,5fed3_session1_listb_speeded_trial070_pirate.wav,1,b,peeded,70,pirate,916,correct,NA,Apr 26 2023 13:03:43,Pam,1
5fed3,5fed3_session1_listb_speeded_trial071_coffin.wav,1,b,peeded,71,coffin,749,correct,NA,Apr 26 2023 13:03:49,Pam,1
5fed3,5fed3_session1_listb_speeded_trial072_stapler.wav,1,b,peeded,72,stapler,711,correct,NA,Apr 26 2023 13:03:53,Pam,1
5fed3,5fed3_session1_listb_speeded_trial073_sock.wav,1,b,peeded,73,sock,798,correct,NA,Apr 26 2023 13:04:29,Pam,1
5fed3,5fed3_session1_listb_speeded_trial074_spoon.wav,1,b,peeded,74,spoon,621,correct,NA,Apr 26 2023 13:04:32,Pam,1
5fed3,5fed3_session1_listb_speeded_trial075_roof.wav,1,b,peeded,75,roof,899,correct,NA,Apr 26 2023 13:04:36,Pam,1
5fed3,5fed3_session1_listb_speeded_trial076_lab.wav,1,b,peeded,76,lab,1057,correct,NA,Apr 26 2023 13:04:39,Pam,1
5fed3,5fed3_session1_listb_speeded_trial077_volcano.wav,1,b,peeded,77,volcano,796,correct,NA,Apr 26 2023 13:04:43,Pam,1
5fed3,5fed3_session1_listb_speeded_trial078_shadow.wav,1,b,peeded,78,shadow,908,correct,NA,Apr 26 2023 13:04:46,Pam,1
5fed3,5fed3_session1_listb_speeded_trial079_shirt.wav,1,b,peeded,79,shirt,729,correct,NA,Apr 26 2023 13:04:49,Pam,1
5fed3,5fed3_session1_listb_speeded_trial080_tooth.wav,1,b,peeded,80,tooth,743,correct,NA,Apr 26 2023 13:04:54,Pam,1
5fed3,5fed3_session1_listb_speeded_trial081_printer.wav,1,b,peeded,81,printer,741,correct,NA,Apr 26 2023 13:04:56,Pam,1
5fed3,5fed3_session1_listb_speeded_trial082_heart.wav,1,b,peeded,82,heart,560,correct,NA,Apr 26 2023 13:05:00,Pam,1
5fed3,5fed3_session1_listb_speeded_trial083_duck.wav,1,b,peeded,83,duck,948,correct,NA,Apr 26 2023 13:05:03,Pam,1
5fed3,5fed3_session1_listb_speeded_trial084_pilot.wav,1,b,peeded,84,pilot,1203,correct,NA,Apr 26 2023 13:05:05,Pam,1
5fed3,5fed3_session1_listb_speeded_trial085_hand.wav,1,b,peeded,85,hand,643,correct,NA,Apr 26 2023 13:05:10,Pam,1
5fed3,5fed3_session1_listb_speeded_trial086_watch.wav,1,b,peeded,86,watch,749,correct,NA,Apr 26 2023 13:05:12,Pam,1
5fed3,5fed3_session1_listb_speeded_trial087_car.wav,1,b,peeded,87,car,616,correct,NA,Apr 26 2023 13:05:15,Pam,1
5fed3,5fed3_session1_listb_speeded_trial088_leaf.wav,1,b,peeded,88,leaf,670,correct,NA,Apr 26 2023 13:05:19,Pam,1
5fed3,5fed3_session1_listb_speeded_trial089_television.wav,1,b,peeded,89,television,-1,wrong_word,NA,Apr 26 2023 13:05:28,Pam,1
5fed3,5fed3_session1_listb_speeded_trial090_greenhouse.wav,1,b,peeded,90,greenhouse,1037,correct,NA,Apr 26 2023 13:05:33,Pam,1
5fed3,5fed3_session1_listb_speeded_trial091_dragon.wav,1,b,peeded,91,dragon,689,correct,NA,Apr 26 2023 13:05:39,Pam,1
5fed3,5fed3_session1_listb_speeded_trial092_coconut.wav,1,b,peeded,92,coconut,826,correct,NA,Apr 26 2023 13:05:43,Pam,1
5fed3,5fed3_session1_listb_speeded_trial093_frog.wav,1,b,peeded,93,frog,648,correct,NA,Apr 26 2023 13:05:46,Pam,1
5fed3,5fed3_session1_listb_speeded_trial094_road.wav,1,b,peeded,94,road,788,correct,NA,Apr 26 2023 13:05:51,Pam,1
5fed3,5fed3_session1_listb_speeded_trial095_dentist.wav,1,b,peeded,95,dentist,831,correct,NA,Apr 26 2023 13:05:57,Pam,1
5fed3,5fed3_session1_listb_speeded_trial096_airport.wav,1,b,peeded,96,airport,-1,disfluency,NA,Apr 26 2023 13:06:07,Pam,1
5fed3,5fed3_session1_listb_speeded_trial097_caravan.wav,1,b,peeded,97,caravan,952,correct,NA,Apr 26 2023 13:06:10,Pam,1
5fed3,5fed3_session1_listb_speeded_trial098_harp.wav,1,b,peeded,98,harp,707,correct,NA,Apr 26 2023 13:06:16,Pam,1
5fed3,5fed3_session1_listb_speeded_trial099_choir.wav,1,b,peeded,99,choir,778,correct,NA,Apr 26 2023 13:06:18,Pam,1
5fed3,5fed3_session1_listb_speeded_trial100_thermometer.wav,1,b,peeded,100,thermometer,791,correct,NA,Apr 26 2023 13:06:21,Pam,1
5fed3,5fed3_session1_listb_speeded_trial101_bible.wav,1,b,peeded,101,bible,714,correct,NA,Apr 26 2023 13:06:24,Pam,1
5fed3,5fed3_session1_listb_speeded_trial102_fist.wav,1,b,peeded,102,fist,727,correct,NA,Apr 26 2023 13:06:27,Pam,1
5fed3,5fed3_session1_listb_speeded_trial103_trumpet.wav,1,b,peeded,103,trumpet,834,correct,NA,Apr 26 2023 13:06:31,Pam,1
5fed3,5fed3_session1_listb_speeded_trial104_boomerang.wav,1,b,peeded,104,boomerang,738,correct,NA,Apr 26 2023 13:06:34,Pam,1
5fed3,5fed3_session1_listb_speeded_trial105_pool.wav,1,b,peeded,105,pool,749,correct,NA,Apr 26 2023 13:06:37,Pam,1
5fed3,5fed3_session1_listb_speeded_trial106_mirror.wav,1,b,peeded,106,mirror,869,correct,NA,Apr 26 2023 13:06:41,Pam,1
5fed3,5fed3_session1_listb_speeded_trial107_crown.wav,1,b,peeded,107,crown,890,correct,NA,Apr 26 2023 13:06:44,Pam,1
5fed3,5fed3_session1_listb_speeded_trial108_guitar.wav,1,b,peeded,108,guitar,898,correct,NA,Apr 26 2023 13:06:47,Pam,1
5fed3,5fed3_session1_listb_speeded_trial109_swimming.wav,1,b,peeded,109,swimming,809,correct,NA,Apr 26 2023 13:06:53,Pam,1
5fed3,5fed3_session1_listb_speeded_trial110_jar.wav,1,b,peeded,110,jar,761,correct,NA,Apr 26 2023 13:06:57,Pam,1
5fed3,5fed3_session1_listb_speeded_trial111_back.wav,1,b,peeded,111,back,819,correct,NA,Apr 26 2023 13:07:00,Pam,1
5fed3,5fed3_session1_listb_speeded_trial112_maze.wav,1,b,peeded,112,maze,798,correct,NA,Apr 26 2023 13:07:03,Pam,1
5fed3,5fed3_session1_listb_speeded_trial113_sheep.wav,1,b,peeded,113,sheep,800,correct,NA,Apr 26 2023 13:07:06,Pam,1
5fed3,5fed3_session1_listb_speeded_trial114_cage.wav,1,b,peeded,114,cage,-1,wrong_word,NA,Apr 26 2023 13:07:15,Pam,1
5fed3,5fed3_session1_listb_speeded_trial115_belt.wav,1,b,peeded,115,belt,760,correct,NA,Apr 26 2023 13:07:39,Pam,1
5fed3,5fed3_session1_listb_speeded_trial116_skeleton.wav,1,b,peeded,116,skeleton,709,correct,NA,Apr 26 2023 13:07:44,Pam,1
5fed3,5fed3_session1_listb_speeded_trial117_calculator.wav,1,b,peeded,117,calculator,1006,correct,NA,Apr 26 2023 13:07:47,Pam,1
5fed3,5fed3_session1_listb_speeded_trial118_butcher.wav,1,b,peeded,118,butcher,987,correct,NA,Apr 26 2023 13:07:52,Pam,1
5fed3,5fed3_session1_listb_speeded_trial119_chair.wav,1,b,peeded,119,chair,734,correct,NA,Apr 26 2023 13:07:55,Pam,1
5fed3,5fed3_session1_listb_speeded_trial120_calendar.wav,1,b,peeded,120,calendar,746,correct,NA,Apr 26 2023 13:07:58,Pam,1
5fed3,5fed3_session1_listb_speeded_trial121_hair.wav,1,b,peeded,121,hair,705,correct,NA,Apr 26 2023 13:08:07,Pam,1
5fed3,5fed3_session1_listb_speeded_trial122_pizza.wav,1,b,peeded,122,pizza,671,correct,NA,Apr 26 2023 13:08:23,Pam,1
5fed3,5fed3_session1_listb_speeded_trial123_diamond.wav,1,b,peeded,123,diamond,810,correct,NA,Apr 26 2023 13:08:31,Pam,1
5fed3,5fed3_session1_listb_speeded_trial124_screwdriver.wav,1,b,peeded,124,screwdriver,667,correct,NA,Apr 26 2023 13:08:34,Pam,1
5fed3,5fed3_session1_listb_speeded_trial125_beard.wav,1,b,peeded,125,beard,810,correct,NA,Apr 26 2023 13:08:44,Pam,1
5fed3,5fed3_session1_listb_speeded_trial126_cannon.wav,1,b,peeded,126,cannon,938,correct,NA,Apr 26 2023 13:08:47,Pam,1
5fed3,5fed3_session1_listb_speeded_trial127_dinosaur.wav,1,b,peeded,127,dinosaur,727,correct,NA,Apr 26 2023 13:08:49,Pam,1
5fed3,5fed3_session1_listb_speeded_trial128_dolphin.wav,1,b,peeded,128,dolphin,714,correct,NA,Apr 26 2023 13:08:52,Pam,1
5fed3,5fed3_session1_listb_speeded_trial129_nose.wav,1,b,peeded,129,nose,692,correct,NA,Apr 26 2023 13:08:56,Pam,1
5fed3,5fed3_session1_listb_speeded_trial130_brain.wav,1,b,peeded,130,brain,791,correct,NA,Apr 26 2023 13:08:58,Pam,1
5fed3,5fed3_session1_listb_speeded_trial131_snail.wav,1,b,peeded,131,snail,668,correct,NA,Apr 26 2023 13:09:01,Pam,1
5fed3,5fed3_session1_listb_speeded_trial132_umbrella.wav,1,b,peeded,132,umbrella,674,correct,NA,Apr 26 2023 13:09:15,Pam,1
5fed3,5fed3_session1_listb_speeded_trial133_honey.wav,1,b,peeded,133,honey,721,correct,NA,Apr 26 2023 13:09:17,Pam,1
5fed3,5fed3_session1_listb_speeded_trial134_bra.wav,1,b,peeded,134,bra,699,correct,NA,Apr 26 2023 13:09:23,Pam,1
5fed3,5fed3_session1_listb_speeded_trial135_scarf.wav,1,b,peeded,135,scarf,-1,no_resp,NA,Apr 26 2023 13:09:35,Pam,1
5fed3,5fed3_session1_listb_speeded_trial136_coffee.wav,1,b,peeded,136,coffee,855,correct,NA,Apr 26 2023 13:09:39,Pam,1
5fed3,5fed3_session1_listb_speeded_trial137_face.wav,1,b,peeded,137,face,837,correct,NA,Apr 26 2023 13:09:44,Pam,1
5fed3,5fed3_session1_listb_speeded_trial138_earring.wav,1,b,peeded,138,earring,830,correct,NA,Apr 26 2023 13:09:47,Pam,1
5fed3,5fed3_session1_listb_speeded_trial139_apron.wav,1,b,peeded,139,apron,709,correct,NA,Apr 26 2023 13:09:50,Pam,1
5fed3,5fed3_session1_listb_speeded_trial140_cigarette.wav,1,b,peeded,140,cigarette,670,correct,NA,Apr 26 2023 13:09:53,Pam,1
5fed3,5fed3_session1_listb_speeded_trial141_shark.wav,1,b,peeded,141,shark,-1,wrong_word,NA,Apr 26 2023 13:10:04,Pam,1
5fed3,5fed3_session1_listb_speeded_trial142_bat.wav,1,b,peeded,142,bat,756,correct,NA,Apr 26 2023 13:10:08,Pam,1
5fed3,5fed3_session1_listb_speeded_trial143_lion.wav,1,b,peeded,143,lion,774,correct,NA,Apr 26 2023 13:10:12,Pam,1
5fed3,5fed3_session1_listb_speeded_trial144_fire.wav,1,b,peeded,144,fire,711,correct,NA,Apr 26 2023 13:10:15,Pam,1
5fed3,5fed3_session1_listb_speeded_trial145_nurse.wav,1,b,peeded,145,nurse,947,correct,NA,Apr 26 2023 13:10:20,Pam,1
5fed3,5fed3_session1_listb_speeded_trial146_skull.wav,1,b,peeded,146,skull,988,correct,NA,Apr 26 2023 13:10:24,Pam,1
5fed3,5fed3_session1_listb_speeded_trial147_parrot.wav,1,b,peeded,147,parrot,711,correct,NA,Apr 26 2023 13:10:28,Pam,1
5fed3,5fed3_session1_listb_speeded_trial148_door.wav,1,b,peeded,148,door,691,correct,NA,Apr 26 2023 13:10:31,Pam,1
5fed3,5fed3_session1_listb_speeded_trial149_chain.wav,1,b,peeded,149,chain,717,correct,NA,Apr 26 2023 13:10:34,Pam,1
5fed3,5fed3_session1_listb_speeded_trial150_handle.wav,1,b,peeded,150,handle,1066,correct,NA,Apr 26 2023 13:10:38,Pam,1
