Participant_ID,File_Name,Session,List,Type_Trial,Trial_Nbr,Target,RT,Response_Trial,Comment,Date_Correction,Assessor_Name,Processed
5f4d8,5f4d8_session1_listb_speeded_trial001_dinosaur.wav,1,b,peeded,1,dinosaur,933,correct,NA,Apr 27 2023 11:42:34,Doris,1
5f4d8,5f4d8_session1_listb_speeded_trial002_lion.wav,1,b,peeded,2,lion,713,correct,NA,Apr 27 2023 11:43:09,Doris,1
5f4d8,5f4d8_session1_listb_speeded_trial003_apron.wav,1,b,peeded,3,apron,803,correct,NA,Apr 27 2023 11:43:56,Doris,1
5f4d8,5f4d8_session1_listb_speeded_trial004_burger.wav,1,b,peeded,4,burger,880,correct,NA,Apr 27 2023 11:44:28,Doris,1
5f4d8,5f4d8_session1_listb_speeded_trial005_scarecrow.wav,1,b,peeded,5,scarecrow,722,correct,NA,Apr 27 2023 11:49:06,Doris,1
5f4d8,5f4d8_session1_listb_speeded_trial006_calendar.wav,1,b,peeded,6,calendar,731,correct,NA,Apr 27 2023 11:49:40,Doris,1
5f4d8,5f4d8_session1_listb_speeded_trial007_tooth.wav,1,b,peeded,7,tooth,810,correct,NA,Apr 27 2023 11:50:44,Doris,1
5f4d8,5f4d8_session1_listb_speeded_trial008_watch.wav,1,b,peeded,8,watch,807,correct,NA,Apr 27 2023 11:51:57,Doris,1
5f4d8,5f4d8_session1_listb_speeded_trial009_mask.wav,1,b,peeded,9,mask,807,correct,NA,Apr 27 2023 11:53:58,Doris,1
5f4d8,5f4d8_session1_listb_speeded_trial010_chain.wav,1,b,peeded,10,chain,758,correct,NA,Apr 27 2023 11:55:10,Doris,1
5f4d8,5f4d8_session1_listb_speeded_trial011_coffee.wav,1,b,peeded,11,coffee,815,correct,NA,Apr 27 2023 11:56:11,Doris,1
5f4d8,5f4d8_session1_listb_speeded_trial012_nose.wav,1,b,peeded,12,nose,715,correct,NA,Apr 27 2023 11:57:46,Doris,1
5f4d8,5f4d8_session1_listb_speeded_trial013_shadow.wav,1,b,peeded,13,shadow,788,correct,NA,Apr 27 2023 11:59:50,Doris,1
5f4d8,5f4d8_session1_listb_speeded_trial014_honey.wav,1,b,peeded,14,honey,785,correct,NA,Apr 27 2023 12:02:33,Doris,1
5f4d8,5f4d8_session1_listb_speeded_trial015_coconut.wav,1,b,peeded,15,coconut,900,correct,NA,Apr 27 2023 12:03:20,Doris,1
5f4d8,5f4d8_session1_listb_speeded_trial016_cage.wav,1,b,peeded,16,cage,-1,disfluency,the onset is not recorded,Apr 27 2023 12:03:51,Doris,1
5f4d8,5f4d8_session1_listb_speeded_trial017_asparagus.wav,1,b,peeded,17,asparagus,895,correct,NA,Apr 27 2023 12:04:49,Doris,1
5f4d8,5f4d8_session1_listb_speeded_trial018_bed.wav,1,b,peeded,18,bed,-1,disfluency,the onset of the word is not recorded,Apr 27 2023 12:05:12,Doris,1
5f4d8,5f4d8_session1_listb_speeded_trial019_brain.wav,1,b,peeded,19,brain,920,correct,NA,Apr 27 2023 12:05:46,Doris,1
5f4d8,5f4d8_session1_listb_speeded_trial020_egg.wav,1,b,peeded,20,egg,866,correct,NA,Apr 27 2023 12:06:16,Doris,1
5f4d8,5f4d8_session1_listb_speeded_trial021_waiter.wav,1,b,peeded,21,waiter,895,correct,NA,Apr 27 2023 12:07:01,Doris,1
5f4d8,5f4d8_session1_listb_speeded_trial022_boomerang.wav,1,b,peeded,22,boomerang,879,correct,NA,Apr 27 2023 12:14:40,Doris,1
5f4d8,5f4d8_session1_listb_speeded_trial023_earring.wav,1,b,peeded,23,earring,953,correct,NA,Apr 27 2023 12:18:02,Doris,1
5f4d8,5f4d8_session1_listb_speeded_trial024_house.wav,1,b,peeded,24,house,817,correct,NA,Apr 27 2023 12:22:11,Doris,1
5f4d8,5f4d8_session1_listb_speeded_trial025_harp.wav,1,b,peeded,25,harp,871,correct,NA,Apr 27 2023 12:23:04,Doris,1
5f4d8,5f4d8_session1_listb_speeded_trial026_witch.wav,1,b,peeded,26,witch,1010,correct,NA,Apr 27 2023 12:24:00,Doris,1
5f4d8,5f4d8_session1_listb_speeded_trial027_king.wav,1,b,peeded,27,king,867,correct,NA,Apr 27 2023 12:24:27,Doris,1
5f4d8,5f4d8_session1_listb_speeded_trial028_elephant.wav,1,b,peeded,28,elephant,795,correct,NA,Apr 27 2023 12:25:08,Doris,1
5f4d8,5f4d8_session1_listb_speeded_trial029_well.wav,1,b,peeded,29,well,815,correct,NA,Apr 27 2023 12:25:44,Doris,1
5f4d8,5f4d8_session1_listb_speeded_trial030_strawberry.wav,1,b,peeded,30,strawberry,777,correct,NA,Apr 27 2023 12:26:56,Doris,1
5f4d8,5f4d8_session1_listb_speeded_trial031_cloud.wav,1,b,peeded,31,cloud,765,correct,NA,Apr 27 2023 12:27:32,Doris,1
5f4d8,5f4d8_session1_listb_speeded_trial032_gun.wav,1,b,peeded,32,gun,791,correct,NA,Apr 27 2023 12:28:12,Doris,1
5f4d8,5f4d8_session1_listb_speeded_trial033_door.wav,1,b,peeded,33,door,1287,correct,NA,Apr 27 2023 12:28:57,Doris,1
5f4d8,5f4d8_session1_listb_speeded_trial034_face.wav,1,b,peeded,34,face,1108,correct,NA,Apr 27 2023 12:29:42,Doris,1
5f4d8,5f4d8_session1_listb_speeded_trial035_glasses.wav,1,b,peeded,35,glasses,1023,correct,NA,Apr 27 2023 12:33:41,Doris,1
5f4d8,5f4d8_session1_listb_speeded_trial036_maze.wav,1,b,peeded,36,maze,839,correct,NA,Apr 27 2023 13:33:16,Doris,1
5f4d8,5f4d8_session1_listb_speeded_trial037_swimming.wav,1,b,peeded,37,swimming,915,correct,NA,Apr 27 2023 13:34:26,Doris,1
5f4d8,5f4d8_session1_listb_speeded_trial038_tank.wav,1,b,peeded,38,tank,839,correct,NA,Apr 27 2023 13:35:31,Doris,1
5f4d8,5f4d8_session1_listb_speeded_trial039_ambulance.wav,1,b,peeded,39,ambulance,975,correct,NA,Apr 27 2023 13:35:59,Doris,1
5f4d8,5f4d8_session1_listb_speeded_trial040_eye.wav,1,b,peeded,40,eye,774,correct,NA,Apr 27 2023 13:36:27,Doris,1
5f4d8,5f4d8_session1_listb_speeded_trial041_iron.wav,1,b,peeded,41,iron,865,correct,NA,Apr 27 2023 13:36:53,Doris,1
5f4d8,5f4d8_session1_listb_speeded_trial042_parrot.wav,1,b,peeded,42,parrot,857,correct,NA,Apr 27 2023 13:37:53,Doris,1
5f4d8,5f4d8_session1_listb_speeded_trial043_fruit.wav,1,b,peeded,43,fruit,920,correct,NA,Apr 27 2023 13:38:27,Doris,1
5f4d8,5f4d8_session1_listb_speeded_trial044_caravan.wav,1,b,peeded,44,caravan,1053,correct,NA,Apr 27 2023 13:38:47,Doris,1
5f4d8,5f4d8_session1_listb_speeded_trial045_ring.wav,1,b,peeded,45,ring,773,correct,NA,Apr 27 2023 13:39:06,Doris,1
5f4d8,5f4d8_session1_listb_speeded_trial046_calculator.wav,1,b,peeded,46,calculator,-1,disfluency,stutters and the word onset is not recorded/complete,Apr 27 2023 13:39:32,Doris,1
5f4d8,5f4d8_session1_listb_speeded_trial047_feather.wav,1,b,peeded,47,feather,1039,correct,NA,Apr 27 2023 13:39:54,Doris,1
5f4d8,5f4d8_session1_listb_speeded_trial048_needle.wav,1,b,peeded,48,needle,858,correct,NA,Apr 27 2023 13:40:25,Doris,1
5f4d8,5f4d8_session1_listb_speeded_trial049_knee.wav,1,b,peeded,49,knee,1080,correct,NA,Apr 27 2023 13:41:14,Doris,1
5f4d8,5f4d8_session1_listb_speeded_trial050_leaf.wav,1,b,peeded,50,leaf,891,correct,NA,Apr 27 2023 13:41:36,Doris,1
5f4d8,5f4d8_session1_listb_speeded_trial051_fire.wav,1,b,peeded,51,fire,773,correct,NA,Apr 27 2023 13:42:05,Doris,1
5f4d8,5f4d8_session1_listb_speeded_trial052_roof.wav,1,b,peeded,52,roof,1026,correct,NA,Apr 27 2023 13:42:31,Doris,1
5f4d8,5f4d8_session1_listb_speeded_trial053_road.wav,1,b,peeded,53,road,871,correct,NA,Apr 27 2023 13:43:12,Doris,1
5f4d8,5f4d8_session1_listb_speeded_trial054_hair.wav,1,b,peeded,54,hair,748,correct,NA,Apr 27 2023 13:43:50,Doris,1
5f4d8,5f4d8_session1_listb_speeded_trial055_dog.wav,1,b,peeded,55,dog,757,correct,NA,Apr 27 2023 13:44:32,Doris,1
5f4d8,5f4d8_session1_listb_speeded_trial056_ankle.wav,1,b,peeded,56,ankle,920,correct,NA,Apr 27 2023 13:45:45,Doris,1
5f4d8,5f4d8_session1_listb_speeded_trial057_snail.wav,1,b,peeded,57,snail,782,correct,NA,Apr 27 2023 13:46:55,Doris,1
5f4d8,5f4d8_session1_listb_speeded_trial058_football.wav,1,b,peeded,58,football,810,correct,NA,Apr 27 2023 13:47:20,Doris,1
5f4d8,5f4d8_session1_listb_speeded_trial059_choir.wav,1,b,peeded,59,choir,798,correct,NA,Apr 27 2023 13:47:59,Doris,1
5f4d8,5f4d8_session1_listb_speeded_trial060_cigarette.wav,1,b,peeded,60,cigarette,863,correct,NA,Apr 27 2023 13:48:24,Doris,1
5f4d8,5f4d8_session1_listb_speeded_trial061_duck.wav,1,b,peeded,61,duck,-1,correct,NA,Apr 27 2023 13:48:40,Doris,1
5f4d8,5f4d8_session1_listb_speeded_trial062_moustache.wav,1,b,peeded,62,moustache,868,correct,NA,Apr 27 2023 13:49:04,Doris,1
5f4d8,5f4d8_session1_listb_speeded_trial063_bra.wav,1,b,peeded,63,bra,827,correct,NA,Apr 27 2023 13:49:30,Doris,1
5f4d8,5f4d8_session1_listb_speeded_trial064_mirror.wav,1,b,peeded,64,mirror,819,correct,NA,Apr 27 2023 13:49:56,Doris,1
5f4d8,5f4d8_session1_listb_speeded_trial065_glass.wav,1,b,peeded,65,glass,765,correct,NA,Apr 27 2023 13:50:37,Doris,1
5f4d8,5f4d8_session1_listb_speeded_trial066_beard.wav,1,b,peeded,66,beard,816,correct,NA,Apr 27 2023 13:51:06,Doris,1
5f4d8,5f4d8_session1_listb_speeded_trial067_banana.wav,1,b,peeded,67,banana,776,correct,NA,Apr 27 2023 13:51:27,Doris,1
5f4d8,5f4d8_session1_listb_speeded_trial068_scarf.wav,1,b,peeded,68,scarf,751,correct,NA,Apr 27 2023 13:52:19,Doris,1
5f4d8,5f4d8_session1_listb_speeded_trial069_nurse.wav,1,b,peeded,69,nurse,845,correct,NA,Apr 27 2023 13:52:43,Doris,1
5f4d8,5f4d8_session1_listb_speeded_trial070_keyboard.wav,1,b,peeded,70,keyboard,831,correct,NA,Apr 27 2023 13:53:10,Doris,1
5f4d8,5f4d8_session1_listb_speeded_trial071_pumpkin.wav,1,b,peeded,71,pumpkin,771,correct,NA,Apr 27 2023 13:53:33,Doris,1
5f4d8,5f4d8_session1_listb_speeded_trial072_back.wav,1,b,peeded,72,back,830,correct,NA,Apr 27 2023 13:53:51,Doris,1
5f4d8,5f4d8_session1_listb_speeded_trial073_microphone.wav,1,b,peeded,73,microphone,-1,correct,NA,Apr 27 2023 13:54:20,Doris,1
5f4d8,5f4d8_session1_listb_speeded_trial074_dentist.wav,1,b,peeded,74,dentist,-1,disfluency,word onset not clear/recorded,Apr 27 2023 13:54:48,Doris,1
5f4d8,5f4d8_session1_listb_speeded_trial075_belt.wav,1,b,peeded,75,belt,950,correct,NA,Apr 27 2023 13:57:43,Doris,1
5f4d8,5f4d8_session1_listb_speeded_trial076_pilot.wav,1,b,peeded,76,pilot,975,correct,NA,Apr 27 2023 13:58:03,Doris,1
5f4d8,5f4d8_session1_listb_speeded_trial077_hand.wav,1,b,peeded,77,hand,927,correct,NA,Apr 27 2023 13:58:23,Doris,1
5f4d8,5f4d8_session1_listb_speeded_trial078_foot.wav,1,b,peeded,78,foot,626,correct,NA,Apr 27 2023 13:58:50,Doris,1
5f4d8,5f4d8_session1_listb_speeded_trial079_sheep.wav,1,b,peeded,79,sheep,733,correct,NA,Apr 27 2023 13:59:23,Doris,1
5f4d8,5f4d8_session1_listb_speeded_trial080_frog.wav,1,b,peeded,80,frog,1177,correct,NA,Apr 27 2023 13:59:52,Doris,1
5f4d8,5f4d8_session1_listb_speeded_trial081_lemon.wav,1,b,peeded,81,lemon,932,correct,NA,Apr 27 2023 14:00:18,Doris,1
5f4d8,5f4d8_session1_listb_speeded_trial082_airport.wav,1,b,peeded,82,airport,1020,correct,NA,Apr 27 2023 14:00:46,Doris,1
5f4d8,5f4d8_session1_listb_speeded_trial083_hedgehog.wav,1,b,peeded,83,hedgehog,818,correct,NA,Apr 27 2023 14:01:16,Doris,1
5f4d8,5f4d8_session1_listb_speeded_trial084_cannon.wav,1,b,peeded,84,cannon,1169,correct,NA,Apr 27 2023 14:01:38,Doris,1
5f4d8,5f4d8_session1_listb_speeded_trial085_finger.wav,1,b,peeded,85,finger,828,correct,NA,Apr 27 2023 14:03:16,Doris,1
5f4d8,5f4d8_session1_listb_speeded_trial086_bin.wav,1,b,peeded,86,bin,805,correct,NA,Apr 27 2023 14:03:44,Doris,1
5f4d8,5f4d8_session1_listb_speeded_trial087_trumpet.wav,1,b,peeded,87,trumpet,732,correct,NA,Apr 27 2023 14:04:22,Doris,1
5f4d8,5f4d8_session1_listb_speeded_trial088_man.wav,1,b,peeded,88,man,1145,correct,NA,Apr 27 2023 14:04:59,Doris,1
5f4d8,5f4d8_session1_listb_speeded_trial089_thermometer.wav,1,b,peeded,89,thermometer,932,correct,NA,Apr 27 2023 14:05:28,Doris,1
5f4d8,5f4d8_session1_listb_speeded_trial090_coffin.wav,1,b,peeded,90,coffin,-1,disfluency,only the initial syllable of the word is recorded,Apr 27 2023 14:05:55,Doris,1
5f4d8,5f4d8_session1_listb_speeded_trial091_stapler.wav,1,b,peeded,91,stapler,749,correct,NA,Apr 27 2023 14:06:31,Doris,1
5f4d8,5f4d8_session1_listb_speeded_trial092_balloon.wav,1,b,peeded,92,balloon,740,correct,NA,Apr 27 2023 14:07:09,Doris,1
5f4d8,5f4d8_session1_listb_speeded_trial093_shirt.wav,1,b,peeded,93,shirt,733,correct,NA,Apr 27 2023 14:07:58,Doris,1
5f4d8,5f4d8_session1_listb_speeded_trial094_umbrella.wav,1,b,peeded,94,umbrella,732,correct,NA,Apr 27 2023 14:09:11,Doris,1
5f4d8,5f4d8_session1_listb_speeded_trial095_pirate.wav,1,b,peeded,95,pirate,873,correct,NA,Apr 27 2023 14:09:47,Doris,1
5f4d8,5f4d8_session1_listb_speeded_trial096_telephone.wav,1,b,peeded,96,telephone,988,correct,NA,Apr 27 2023 14:10:18,Doris,1
5f4d8,5f4d8_session1_listb_speeded_trial097_television.wav,1,b,peeded,97,television,-1,no_resp,NA,Apr 27 2023 14:10:33,Doris,1
5f4d8,5f4d8_session1_listb_speeded_trial098_desert.wav,1,b,peeded,98,desert,1298,uncertain,"I marked the boundary; however, the final /t/ wasn't recorded",Apr 27 2023 14:30:38,Doris,1
5f4d8,5f4d8_session1_listb_speeded_trial099_broccoli.wav,1,b,peeded,99,broccoli,931,correct,NA,Apr 27 2023 14:31:21,Doris,1
5f4d8,5f4d8_session1_listb_speeded_trial100_butcher.wav,1,b,peeded,100,butcher,922,correct,NA,Apr 27 2023 14:31:47,Doris,1
5f4d8,5f4d8_session1_listb_speeded_trial101_shark.wav,1,b,peeded,101,shark,720,correct,NA,Apr 27 2023 14:32:29,Doris,1
5f4d8,5f4d8_session1_listb_speeded_trial102_fan.wav,1,b,peeded,102,fan,1023,correct,NA,Apr 27 2023 14:32:52,Doris,1
5f4d8,5f4d8_session1_listb_speeded_trial103_pizza.wav,1,b,peeded,103,pizza,862,correct,NA,Apr 27 2023 14:33:12,Doris,1
5f4d8,5f4d8_session1_listb_speeded_trial104_baby.wav,1,b,peeded,104,baby,833,correct,NA,Apr 27 2023 14:34:03,Doris,1
5f4d8,5f4d8_session1_listb_speeded_trial105_devil.wav,1,b,peeded,105,devil,896,correct,NA,Apr 27 2023 14:34:24,Doris,1
5f4d8,5f4d8_session1_listb_speeded_trial106_handle.wav,1,b,peeded,106,handle,1006,correct,NA,Apr 27 2023 14:34:49,Doris,1
5f4d8,5f4d8_session1_listb_speeded_trial107_sink.wav,1,b,peeded,107,sink,860,correct,NA,Apr 27 2023 14:35:20,Doris,1
5f4d8,5f4d8_session1_listb_speeded_trial108_greenhouse.wav,1,b,peeded,108,greenhouse,887,correct,NA,Apr 27 2023 14:35:45,Doris,1
5f4d8,5f4d8_session1_listb_speeded_trial109_sock.wav,1,b,peeded,109,sock,719,correct,NA,Apr 27 2023 14:36:14,Doris,1
5f4d8,5f4d8_session1_listb_speeded_trial110_jar.wav,1,b,peeded,110,jar,864,correct,NA,Apr 27 2023 14:36:34,Doris,1
5f4d8,5f4d8_session1_listb_speeded_trial111_bat.wav,1,b,peeded,111,bat,893,correct,NA,Apr 27 2023 14:36:58,Doris,1
5f4d8,5f4d8_session1_listb_speeded_trial112_lizard.wav,1,b,peeded,112,lizard,885,correct,NA,Apr 27 2023 14:37:25,Doris,1
5f4d8,5f4d8_session1_listb_speeded_trial113_bedroom.wav,1,b,peeded,113,bedroom,1091,correct,NA,Apr 27 2023 14:38:41,Doris,1
5f4d8,5f4d8_session1_listb_speeded_trial114_pool.wav,1,b,peeded,114,pool,928,correct,NA,Apr 27 2023 14:38:59,Doris,1
5f4d8,5f4d8_session1_listb_speeded_trial115_camera.wav,1,b,peeded,115,camera,920,correct,NA,Apr 27 2023 14:59:40,Doris,1
5f4d8,5f4d8_session1_listb_speeded_trial116_skateboard.wav,1,b,peeded,116,skateboard,853,correct,NA,Apr 27 2023 15:00:01,Doris,1
5f4d8,5f4d8_session1_listb_speeded_trial117_guitar.wav,1,b,peeded,117,guitar,843,correct,NA,Apr 27 2023 15:00:30,Doris,1
5f4d8,5f4d8_session1_listb_speeded_trial118_cone.wav,1,b,peeded,118,cone,998,correct,NA,Apr 27 2023 15:00:57,Doris,1
5f4d8,5f4d8_session1_listb_speeded_trial119_girl.wav,1,b,peeded,119,girl,882,correct,NA,Apr 27 2023 15:01:20,Doris,1
5f4d8,5f4d8_session1_listb_speeded_trial120_penguin.wav,1,b,peeded,120,penguin,909,correct,NA,Apr 27 2023 15:02:06,Doris,1
5f4d8,5f4d8_session1_listb_speeded_trial121_screwdriver.wav,1,b,peeded,121,screwdriver,912,correct,NA,Apr 27 2023 15:02:23,Doris,1
5f4d8,5f4d8_session1_listb_speeded_trial122_volcano.wav,1,b,peeded,122,volcano,1052,correct,NA,Apr 27 2023 15:03:09,Doris,1
5f4d8,5f4d8_session1_listb_speeded_trial123_fist.wav,1,b,peeded,123,fist,-1,wrong_word,NA,Apr 27 2023 15:03:19,Doris,1
5f4d8,5f4d8_session1_listb_speeded_trial124_dragon.wav,1,b,peeded,124,dragon,882,correct,NA,Apr 27 2023 15:03:40,Doris,1
5f4d8,5f4d8_session1_listb_speeded_trial125_button.wav,1,b,peeded,125,button,838,correct,NA,Apr 27 2023 15:04:07,Doris,1
5f4d8,5f4d8_session1_listb_speeded_trial126_farm.wav,1,b,peeded,126,farm,1162,correct,NA,Apr 27 2023 15:04:32,Doris,1
5f4d8,5f4d8_session1_listb_speeded_trial127_condom.wav,1,b,peeded,127,condom,-1,disfluency,the final /m/ wasn't recorded,Apr 27 2023 15:04:50,Doris,1
5f4d8,5f4d8_session1_listb_speeded_trial128_spider.wav,1,b,peeded,128,spider,1010,correct,NA,Apr 27 2023 15:05:26,Doris,1
5f4d8,5f4d8_session1_listb_speeded_trial129_vein.wav,1,b,peeded,129,vein,1168,correct,NA,Apr 27 2023 15:06:19,Doris,1
5f4d8,5f4d8_session1_listb_speeded_trial130_scorpion.wav,1,b,peeded,130,scorpion,882,correct,NA,Apr 27 2023 15:06:39,Doris,1
5f4d8,5f4d8_session1_listb_speeded_trial131_bible.wav,1,b,peeded,131,bible,876,correct,NA,Apr 27 2023 15:07:22,Doris,1
5f4d8,5f4d8_session1_listb_speeded_trial132_chair.wav,1,b,peeded,132,chair,916,correct,NA,Apr 27 2023 15:07:42,Doris,1
5f4d8,5f4d8_session1_listb_speeded_trial133_diamond.wav,1,b,peeded,133,diamond,896,correct,NA,Apr 27 2023 15:08:03,Doris,1
5f4d8,5f4d8_session1_listb_speeded_trial134_skeleton.wav,1,b,peeded,134,skeleton,869,correct,NA,Apr 27 2023 15:08:28,Doris,1
5f4d8,5f4d8_session1_listb_speeded_trial135_lab.wav,1,b,peeded,135,lab,-1,correct,NA,Apr 27 2023 15:09:14,Doris,1
5f4d8,5f4d8_session1_listb_speeded_trial136_dolphin.wav,1,b,peeded,136,dolphin,837,correct,NA,Apr 27 2023 15:09:56,Doris,1
5f4d8,5f4d8_session1_listb_speeded_trial137_cowboy.wav,1,b,peeded,137,cowboy,-1,wrong_word,"incomplete word utterance, "-boy" in "cowboy" is missing",Apr 27 2023 15:10:26,Doris,1
5f4d8,5f4d8_session1_listb_speeded_trial138_heart.wav,1,b,peeded,138,heart,748,correct,NA,Apr 27 2023 15:11:03,Doris,1
5f4d8,5f4d8_session1_listb_speeded_trial139_cactus.wav,1,b,peeded,139,cactus,847,correct,NA,Apr 27 2023 15:11:28,Doris,1
5f4d8,5f4d8_session1_listb_speeded_trial140_torch.wav,1,b,peeded,140,torch,914,correct,NA,Apr 27 2023 15:11:54,Doris,1
5f4d8,5f4d8_session1_listb_speeded_trial141_wallet.wav,1,b,peeded,141,wallet,829,correct,NA,Apr 27 2023 15:17:40,Doris,1
5f4d8,5f4d8_session1_listb_speeded_trial142_car.wav,1,b,peeded,142,car,824,correct,NA,Apr 27 2023 15:17:55,Doris,1
5f4d8,5f4d8_session1_listb_speeded_trial143_spoon.wav,1,b,peeded,143,spoon,729,correct,NA,Apr 27 2023 15:18:52,Doris,1
5f4d8,5f4d8_session1_listb_speeded_trial144_crown.wav,1,b,peeded,144,crown,1022,correct,NA,Apr 27 2023 15:19:10,Doris,1
5f4d8,5f4d8_session1_listb_speeded_trial145_printer.wav,1,b,peeded,145,printer,-1,wrong_word,"-er" morpheme missing in the recording,Apr 27 2023 15:22:19,Doris,1
5f4d8,5f4d8_session1_listb_speeded_trial146_nun.wav,1,b,peeded,146,nun,955,correct,NA,Apr 27 2023 15:22:45,Doris,1
5f4d8,5f4d8_session1_listb_speeded_trial147_parachute.wav,1,b,peeded,147,parachute,-1,disfluency,second part of word missing; recording incomplete,Apr 27 2023 15:23:04,Doris,1
5f4d8,5f4d8_session1_listb_speeded_trial148_giraffe.wav,1,b,peeded,148,giraffe,-1,disfluency,onset of the word missing in the recording,Apr 27 2023 15:23:20,Doris,1
5f4d8,5f4d8_session1_listb_speeded_trial149_skull.wav,1,b,peeded,149,skull,745,correct,NA,Apr 27 2023 15:24:01,Doris,1
5f4d8,5f4d8_session1_listb_speeded_trial150_broom.wav,1,b,peeded,150,broom,900,correct,NA,Apr 27 2023 15:24:19,Doris,1
