Participant_ID,File_Name,Session,List,Type_Trial,Trial_Nbr,Target,RT,Response_Trial,Comment,Date_Correction,Assessor_Name,Processed
56411,56411_session1_listb_speeded_trial001_ankle.wav,1,b,peeded,1,ankle,844,correct,NA,Apr 26 2023 13:53:13,Pam,1
56411,56411_session1_listb_speeded_trial002_eye.wav,1,b,peeded,2,eye,666,correct,NA,Apr 26 2023 13:53:17,Pam,1
56411,56411_session1_listb_speeded_trial003_beard.wav,1,b,peeded,3,beard,710,correct,NA,Apr 26 2023 13:53:21,Pam,1
56411,56411_session1_listb_speeded_trial004_volcano.wav,1,b,peeded,4,volcano,750,correct,NA,Apr 26 2023 13:53:25,Pam,1
56411,56411_session1_listb_speeded_trial005_giraffe.wav,1,b,peeded,5,giraffe,627,correct,NA,Apr 26 2023 13:53:29,Pam,1
56411,56411_session1_listb_speeded_trial006_honey.wav,1,b,peeded,6,honey,687,correct,NA,Apr 26 2023 13:53:53,Pam,1
56411,56411_session1_listb_speeded_trial007_heart.wav,1,b,peeded,7,heart,669,correct,NA,Apr 26 2023 13:53:59,Pam,1
56411,56411_session1_listb_speeded_trial008_handle.wav,1,b,peeded,8,handle,-1,no_resp,NA,Apr 26 2023 13:54:10,Pam,1
56411,56411_session1_listb_speeded_trial009_torch.wav,1,b,peeded,9,torch,-1,wrong_word,NA,Apr 26 2023 13:54:21,Pam,1
56411,56411_session1_listb_speeded_trial010_skeleton.wav,1,b,peeded,10,skeleton,928,correct,NA,Apr 26 2023 13:54:25,Pam,1
56411,56411_session1_listb_speeded_trial011_cactus.wav,1,b,peeded,11,cactus,822,correct,NA,Apr 26 2023 13:54:45,Pam,1
56411,56411_session1_listb_speeded_trial012_pool.wav,1,b,peeded,12,pool,-1,wrong_word,NA,Apr 26 2023 13:54:55,Pam,1
56411,56411_session1_listb_speeded_trial013_frog.wav,1,b,peeded,13,frog,723,correct,NA,Apr 26 2023 13:54:59,Pam,1
56411,56411_session1_listb_speeded_trial014_screwdriver.wav,1,b,peeded,14,screwdriver,668,correct,NA,Apr 26 2023 13:55:03,Pam,1
56411,56411_session1_listb_speeded_trial015_elephant.wav,1,b,peeded,15,elephant,735,correct,NA,Apr 26 2023 13:55:07,Pam,1
56411,56411_session1_listb_speeded_trial016_crown.wav,1,b,peeded,16,crown,756,correct,NA,Apr 26 2023 13:55:09,Pam,1
56411,56411_session1_listb_speeded_trial017_hair.wav,1,b,peeded,17,hair,777,correct,NA,Apr 26 2023 13:55:13,Pam,1
56411,56411_session1_listb_speeded_trial018_belt.wav,1,b,peeded,18,belt,762,correct,NA,Apr 26 2023 13:55:16,Pam,1
56411,56411_session1_listb_speeded_trial019_stapler.wav,1,b,peeded,19,stapler,720,correct,NA,Apr 26 2023 13:55:19,Pam,1
56411,56411_session1_listb_speeded_trial020_diamond.wav,1,b,peeded,20,diamond,757,correct,NA,Apr 26 2023 13:55:21,Pam,1
56411,56411_session1_listb_speeded_trial021_egg.wav,1,b,peeded,21,egg,720,correct,NA,Apr 26 2023 13:55:24,Pam,1
56411,56411_session1_listb_speeded_trial022_pirate.wav,1,b,peeded,22,pirate,773,correct,NA,Apr 26 2023 13:55:27,Pam,1
56411,56411_session1_listb_speeded_trial023_airport.wav,1,b,peeded,23,airport,1050,correct,NA,Apr 26 2023 13:55:29,Pam,1
56411,56411_session1_listb_speeded_trial024_spider.wav,1,b,peeded,24,spider,681,correct,NA,Apr 26 2023 13:55:32,Pam,1
56411,56411_session1_listb_speeded_trial025_calculator.wav,1,b,peeded,25,calculator,701,correct,NA,Apr 26 2023 13:55:35,Pam,1
56411,56411_session1_listb_speeded_trial026_dentist.wav,1,b,peeded,26,dentist,-1,wrong_word,NA,Apr 26 2023 13:55:44,Pam,1
56411,56411_session1_listb_speeded_trial027_caravan.wav,1,b,peeded,27,caravan,884,correct,NA,Apr 26 2023 13:55:47,Pam,1
56411,56411_session1_listb_speeded_trial028_mirror.wav,1,b,peeded,28,mirror,701,correct,NA,Apr 26 2023 13:55:49,Pam,1
56411,56411_session1_listb_speeded_trial029_snail.wav,1,b,peeded,29,snail,659,correct,NA,Apr 26 2023 13:55:52,Pam,1
56411,56411_session1_listb_speeded_trial030_dolphin.wav,1,b,peeded,30,dolphin,681,correct,NA,Apr 26 2023 13:55:55,Pam,1
56411,56411_session1_listb_speeded_trial031_foot.wav,1,b,peeded,31,foot,619,correct,NA,Apr 26 2023 13:55:57,Pam,1
56411,56411_session1_listb_speeded_trial032_apron.wav,1,b,peeded,32,apron,742,correct,NA,Apr 26 2023 13:56:00,Pam,1
56411,56411_session1_listb_speeded_trial033_sink.wav,1,b,peeded,33,sink,730,correct,NA,Apr 26 2023 13:56:03,Pam,1
56411,56411_session1_listb_speeded_trial034_bed.wav,1,b,peeded,34,bed,760,correct,NA,Apr 26 2023 13:56:07,Pam,1
56411,56411_session1_listb_speeded_trial035_chain.wav,1,b,peeded,35,chain,761,correct,NA,Apr 26 2023 13:56:10,Pam,1
56411,56411_session1_listb_speeded_trial036_roof.wav,1,b,peeded,36,roof,1022,correct,NA,Apr 26 2023 13:56:12,Pam,1
56411,56411_session1_listb_speeded_trial037_nose.wav,1,b,peeded,37,nose,695,correct,NA,Apr 26 2023 13:56:15,Pam,1
56411,56411_session1_listb_speeded_trial038_bible.wav,1,b,peeded,38,bible,786,correct,NA,Apr 26 2023 13:56:17,Pam,1
56411,56411_session1_listb_speeded_trial039_feather.wav,1,b,peeded,39,feather,705,correct,NA,Apr 26 2023 13:56:20,Pam,1
56411,56411_session1_listb_speeded_trial040_asparagus.wav,1,b,peeded,40,asparagus,759,correct,NA,Apr 26 2023 13:56:23,Pam,1
56411,56411_session1_listb_speeded_trial041_cage.wav,1,b,peeded,41,cage,753,correct,NA,Apr 26 2023 13:56:26,Pam,1
56411,56411_session1_listb_speeded_trial042_farm.wav,1,b,peeded,42,farm,793,correct,NA,Apr 26 2023 13:56:28,Pam,1
56411,56411_session1_listb_speeded_trial043_tank.wav,1,b,peeded,43,tank,746,correct,NA,Apr 26 2023 13:56:31,Pam,1
56411,56411_session1_listb_speeded_trial044_camera.wav,1,b,peeded,44,camera,857,correct,NA,Apr 26 2023 13:56:33,Pam,1
56411,56411_session1_listb_speeded_trial045_sheep.wav,1,b,peeded,45,sheep,680,correct,NA,Apr 26 2023 13:56:36,Pam,1
56411,56411_session1_listb_speeded_trial046_shirt.wav,1,b,peeded,46,shirt,758,correct,NA,Apr 26 2023 13:56:39,Pam,1
56411,56411_session1_listb_speeded_trial047_lemon.wav,1,b,peeded,47,lemon,672,correct,NA,Apr 26 2023 13:56:41,Pam,1
56411,56411_session1_listb_speeded_trial048_watch.wav,1,b,peeded,48,watch,676,correct,NA,Apr 26 2023 13:56:44,Pam,1
56411,56411_session1_listb_speeded_trial049_witch.wav,1,b,peeded,49,witch,741,correct,NA,Apr 26 2023 13:56:46,Pam,1
56411,56411_session1_listb_speeded_trial050_lion.wav,1,b,peeded,50,lion,685,correct,NA,Apr 26 2023 13:56:49,Pam,1
56411,56411_session1_listb_speeded_trial051_wallet.wav,1,b,peeded,51,wallet,1049,correct,NA,Apr 26 2023 13:56:52,Pam,1
56411,56411_session1_listb_speeded_trial052_cowboy.wav,1,b,peeded,52,cowboy,984,correct,NA,Apr 26 2023 13:56:54,Pam,1
56411,56411_session1_listb_speeded_trial053_button.wav,1,b,peeded,53,button,801,correct,NA,Apr 26 2023 13:56:57,Pam,1
56411,56411_session1_listb_speeded_trial054_leaf.wav,1,b,peeded,54,leaf,733,correct,NA,Apr 26 2023 13:57:00,Pam,1
56411,56411_session1_listb_speeded_trial055_maze.wav,1,b,peeded,55,maze,809,correct,NA,Apr 26 2023 13:57:03,Pam,1
56411,56411_session1_listb_speeded_trial056_finger.wav,1,b,peeded,56,finger,731,correct,NA,Apr 26 2023 13:57:05,Pam,1
56411,56411_session1_listb_speeded_trial057_cone.wav,1,b,peeded,57,cone,-1,disfluency,NA,Apr 26 2023 13:57:14,Pam,1
56411,56411_session1_listb_speeded_trial058_keyboard.wav,1,b,peeded,58,keyboard,805,correct,NA,Apr 26 2023 13:57:17,Pam,1
56411,56411_session1_listb_speeded_trial059_brain.wav,1,b,peeded,59,brain,745,correct,NA,Apr 26 2023 13:57:19,Pam,1
56411,56411_session1_listb_speeded_trial060_duck.wav,1,b,peeded,60,duck,701,correct,NA,Apr 26 2023 13:57:21,Pam,1
56411,56411_session1_listb_speeded_trial061_devil.wav,1,b,peeded,61,devil,932,correct,NA,Apr 26 2023 13:57:24,Pam,1
56411,56411_session1_listb_speeded_trial062_choir.wav,1,b,peeded,62,choir,824,correct,NA,Apr 26 2023 13:58:09,Pam,1
56411,56411_session1_listb_speeded_trial063_earring.wav,1,b,peeded,63,earring,797,correct,NA,Apr 26 2023 13:58:12,Pam,1
56411,56411_session1_listb_speeded_trial064_fruit.wav,1,b,peeded,64,fruit,882,correct,NA,Apr 26 2023 13:58:15,Pam,1
56411,56411_session1_listb_speeded_trial065_fan.wav,1,b,peeded,65,fan,830,correct,NA,Apr 26 2023 13:58:17,Pam,1
56411,56411_session1_listb_speeded_trial066_condom.wav,1,b,peeded,66,condom,838,correct,NA,Apr 26 2023 13:59:37,Pam,1
56411,56411_session1_listb_speeded_trial067_fire.wav,1,b,peeded,67,fire,658,correct,NA,Apr 26 2023 13:59:45,Pam,1
56411,56411_session1_listb_speeded_trial068_microphone.wav,1,b,peeded,68,microphone,753,correct,NA,Apr 26 2023 13:59:47,Pam,1
56411,56411_session1_listb_speeded_trial069_broom.wav,1,b,peeded,69,broom,804,correct,NA,Apr 26 2023 13:59:49,Pam,1
56411,56411_session1_listb_speeded_trial070_well.wav,1,b,peeded,70,well,-1,disfluency,NA,Apr 26 2023 14:00:22,Pam,1
56411,56411_session1_listb_speeded_trial071_trumpet.wav,1,b,peeded,71,trumpet,-1,wrong_word,NA,Apr 26 2023 14:00:28,Pam,1
56411,56411_session1_listb_speeded_trial072_glasses.wav,1,b,peeded,72,glasses,-1,disfluency,NA,Apr 26 2023 14:00:39,Pam,1
56411,56411_session1_listb_speeded_trial073_banana.wav,1,b,peeded,73,banana,728,correct,NA,Apr 26 2023 14:00:43,Pam,1
56411,56411_session1_listb_speeded_trial074_pilot.wav,1,b,peeded,74,pilot,1076,correct,NA,Apr 26 2023 14:00:46,Pam,1
56411,56411_session1_listb_speeded_trial075_pumpkin.wav,1,b,peeded,75,pumpkin,807,correct,NA,Apr 26 2023 14:01:00,Pam,1
56411,56411_session1_listb_speeded_trial076_coffin.wav,1,b,peeded,76,coffin,1058,correct,NA,Apr 26 2023 14:01:02,Pam,1
56411,56411_session1_listb_speeded_trial077_house.wav,1,b,peeded,77,house,768,correct,NA,Apr 26 2023 14:01:07,Pam,1
56411,56411_session1_listb_speeded_trial078_cigarette.wav,1,b,peeded,78,cigarette,715,correct,NA,Apr 26 2023 14:01:10,Pam,1
56411,56411_session1_listb_speeded_trial079_dinosaur.wav,1,b,peeded,79,dinosaur,782,correct,NA,Apr 26 2023 14:01:13,Pam,1
56411,56411_session1_listb_speeded_trial080_road.wav,1,b,peeded,80,road,789,correct,NA,Apr 26 2023 14:01:17,Pam,1
56411,56411_session1_listb_speeded_trial081_iron.wav,1,b,peeded,81,iron,787,correct,NA,Apr 26 2023 14:01:19,Pam,1
56411,56411_session1_listb_speeded_trial082_needle.wav,1,b,peeded,82,needle,704,correct,NA,Apr 26 2023 14:01:22,Pam,1
56411,56411_session1_listb_speeded_trial083_harp.wav,1,b,peeded,83,harp,752,correct,NA,Apr 26 2023 14:01:25,Pam,1
56411,56411_session1_listb_speeded_trial084_ambulance.wav,1,b,peeded,84,ambulance,1029,correct,NA,Apr 26 2023 14:01:39,Pam,1
56411,56411_session1_listb_speeded_trial085_guitar.wav,1,b,peeded,85,guitar,770,correct,NA,Apr 26 2023 14:01:42,Pam,1
56411,56411_session1_listb_speeded_trial086_boomerang.wav,1,b,peeded,86,boomerang,941,correct,NA,Apr 26 2023 14:01:45,Pam,1
56411,56411_session1_listb_speeded_trial087_cloud.wav,1,b,peeded,87,cloud,-1,no_resp,NA,Apr 26 2023 14:01:57,Pam,1
56411,56411_session1_listb_speeded_trial088_ring.wav,1,b,peeded,88,ring,848,correct,NA,Apr 26 2023 14:02:01,Pam,1
56411,56411_session1_listb_speeded_trial089_spoon.wav,1,b,peeded,89,spoon,670,correct,NA,Apr 26 2023 14:02:05,Pam,1
56411,56411_session1_listb_speeded_trial090_umbrella.wav,1,b,peeded,90,umbrella,831,correct,NA,Apr 26 2023 14:03:09,Pam,1
56411,56411_session1_listb_speeded_trial091_butcher.wav,1,b,peeded,91,butcher,867,correct,NA,Apr 26 2023 14:03:13,Pam,1
56411,56411_session1_listb_speeded_trial092_football.wav,1,b,peeded,92,football,749,correct,NA,Apr 26 2023 14:03:16,Pam,1
56411,56411_session1_listb_speeded_trial093_strawberry.wav,1,b,peeded,93,strawberry,696,correct,NA,Apr 26 2023 14:03:19,Pam,1
56411,56411_session1_listb_speeded_trial094_lizard.wav,1,b,peeded,94,lizard,801,correct,NA,Apr 26 2023 14:03:22,Pam,1
56411,56411_session1_listb_speeded_trial095_mask.wav,1,b,peeded,95,mask,916,correct,NA,Apr 26 2023 14:03:25,Pam,1
56411,56411_session1_listb_speeded_trial096_calendar.wav,1,b,peeded,96,calendar,862,correct,NA,Apr 26 2023 14:04:22,Pam,1
56411,56411_session1_listb_speeded_trial097_jar.wav,1,b,peeded,97,jar,744,correct,NA,Apr 26 2023 14:04:25,Pam,1
56411,56411_session1_listb_speeded_trial098_hedgehog.wav,1,b,peeded,98,hedgehog,676,correct,NA,Apr 26 2023 14:04:27,Pam,1
56411,56411_session1_listb_speeded_trial099_shark.wav,1,b,peeded,99,shark,701,correct,NA,Apr 26 2023 14:04:30,Pam,1
56411,56411_session1_listb_speeded_trial100_lab.wav,1,b,peeded,100,lab,890,correct,NA,Apr 26 2023 14:04:33,Pam,1
56411,56411_session1_listb_speeded_trial101_baby.wav,1,b,peeded,101,baby,751,correct,NA,Apr 26 2023 14:04:37,Pam,1
56411,56411_session1_listb_speeded_trial102_burger.wav,1,b,peeded,102,burger,898,correct,NA,Apr 26 2023 14:04:50,Pam,1
56411,56411_session1_listb_speeded_trial103_pizza.wav,1,b,peeded,103,pizza,813,correct,NA,Apr 26 2023 14:04:53,Pam,1
56411,56411_session1_listb_speeded_trial104_balloon.wav,1,b,peeded,104,balloon,724,correct,NA,Apr 26 2023 14:04:55,Pam,1
56411,56411_session1_listb_speeded_trial105_door.wav,1,b,peeded,105,door,693,correct,NA,Apr 26 2023 14:04:57,Pam,1
56411,56411_session1_listb_speeded_trial106_penguin.wav,1,b,peeded,106,penguin,737,correct,NA,Apr 26 2023 14:05:00,Pam,1
56411,56411_session1_listb_speeded_trial107_desert.wav,1,b,peeded,107,desert,1083,correct,NA,Apr 26 2023 14:05:03,Pam,1
56411,56411_session1_listb_speeded_trial108_gun.wav,1,b,peeded,108,gun,782,correct,NA,Apr 26 2023 14:05:06,Pam,1
56411,56411_session1_listb_speeded_trial109_skull.wav,1,b,peeded,109,skull,669,correct,NA,Apr 26 2023 14:05:08,Pam,1
56411,56411_session1_listb_speeded_trial110_girl.wav,1,b,peeded,110,girl,832,correct,NA,Apr 26 2023 14:05:10,Pam,1
56411,56411_session1_listb_speeded_trial111_moustache.wav,1,b,peeded,111,moustache,801,correct,NA,Apr 26 2023 14:05:12,Pam,1
56411,56411_session1_listb_speeded_trial112_parrot.wav,1,b,peeded,112,parrot,734,correct,NA,Apr 26 2023 14:05:14,Pam,1
56411,56411_session1_listb_speeded_trial113_skateboard.wav,1,b,peeded,113,skateboard,683,correct,NA,Apr 26 2023 14:05:17,Pam,1
56411,56411_session1_listb_speeded_trial114_car.wav,1,b,peeded,114,car,763,correct,NA,Apr 26 2023 14:05:22,Pam,1
56411,56411_session1_listb_speeded_trial115_man.wav,1,b,peeded,115,man,847,correct,NA,Apr 26 2023 14:05:24,Pam,1
56411,56411_session1_listb_speeded_trial116_bin.wav,1,b,peeded,116,bin,-1,wrong_word,NA,Apr 26 2023 14:05:33,Pam,1
56411,56411_session1_listb_speeded_trial117_scarecrow.wav,1,b,peeded,117,scarecrow,877,correct,NA,Apr 26 2023 14:05:36,Pam,1
56411,56411_session1_listb_speeded_trial118_coffee.wav,1,b,peeded,118,coffee,1050,correct,NA,Apr 26 2023 14:05:39,Pam,1
56411,56411_session1_listb_speeded_trial119_bat.wav,1,b,peeded,119,bat,862,correct,NA,Apr 26 2023 14:05:42,Pam,1
56411,56411_session1_listb_speeded_trial120_scorpion.wav,1,b,peeded,120,scorpion,800,correct,NA,Apr 26 2023 14:05:45,Pam,1
56411,56411_session1_listb_speeded_trial121_coconut.wav,1,b,peeded,121,coconut,786,correct,NA,Apr 26 2023 14:05:48,Pam,1
56411,56411_session1_listb_speeded_trial122_printer.wav,1,b,peeded,122,printer,1026,correct,NA,Apr 26 2023 14:05:52,Pam,1
56411,56411_session1_listb_speeded_trial123_bedroom.wav,1,b,peeded,123,bedroom,900,correct,NA,Apr 26 2023 14:05:55,Pam,1
56411,56411_session1_listb_speeded_trial124_thermometer.wav,1,b,peeded,124,thermometer,-1,no_resp,NA,Apr 26 2023 14:06:03,Pam,1
56411,56411_session1_listb_speeded_trial125_dragon.wav,1,b,peeded,125,dragon,793,correct,NA,Apr 26 2023 14:06:05,Pam,1
56411,56411_session1_listb_speeded_trial126_broccoli.wav,1,b,peeded,126,broccoli,939,correct,NA,Apr 26 2023 14:06:08,Pam,1
56411,56411_session1_listb_speeded_trial127_parachute.wav,1,b,peeded,127,parachute,-1,wrong_word,NA,Apr 26 2023 14:06:17,Pam,1
56411,56411_session1_listb_speeded_trial128_shadow.wav,1,b,peeded,128,shadow,969,correct,NA,Apr 26 2023 14:06:19,Pam,1
56411,56411_session1_listb_speeded_trial129_swimming.wav,1,b,peeded,129,swimming,898,correct,NA,Apr 26 2023 14:06:21,Pam,1
56411,56411_session1_listb_speeded_trial130_vein.wav,1,b,peeded,130,vein,940,correct,NA,Apr 26 2023 14:06:24,Pam,1
56411,56411_session1_listb_speeded_trial131_dog.wav,1,b,peeded,131,dog,811,correct,NA,Apr 26 2023 14:06:26,Pam,1
56411,56411_session1_listb_speeded_trial132_bra.wav,1,b,peeded,132,bra,734,correct,NA,Apr 26 2023 14:06:29,Pam,1
56411,56411_session1_listb_speeded_trial133_knee.wav,1,b,peeded,133,knee,1061,correct,NA,Apr 26 2023 14:06:32,Pam,1
56411,56411_session1_listb_speeded_trial134_scarf.wav,1,b,peeded,134,scarf,827,correct,NA,Apr 26 2023 14:06:35,Pam,1
56411,56411_session1_listb_speeded_trial135_hand.wav,1,b,peeded,135,hand,640,correct,NA,Apr 26 2023 14:06:37,Pam,1
56411,56411_session1_listb_speeded_trial136_cannon.wav,1,b,peeded,136,cannon,759,correct,NA,Apr 26 2023 14:06:40,Pam,1
56411,56411_session1_listb_speeded_trial137_waiter.wav,1,b,peeded,137,waiter,926,correct,NA,Apr 26 2023 14:06:44,Pam,1
56411,56411_session1_listb_speeded_trial138_chair.wav,1,b,peeded,138,chair,808,correct,NA,Apr 26 2023 14:06:47,Pam,1
56411,56411_session1_listb_speeded_trial139_fist.wav,1,b,peeded,139,fist,786,correct,NA,Apr 26 2023 14:06:49,Pam,1
56411,56411_session1_listb_speeded_trial140_tooth.wav,1,b,peeded,140,tooth,741,correct,NA,Apr 26 2023 14:06:52,Pam,1
56411,56411_session1_listb_speeded_trial141_face.wav,1,b,peeded,141,face,793,correct,NA,Apr 26 2023 14:06:55,Pam,1
56411,56411_session1_listb_speeded_trial142_greenhouse.wav,1,b,peeded,142,greenhouse,812,correct,NA,Apr 26 2023 14:06:58,Pam,1
56411,56411_session1_listb_speeded_trial143_sock.wav,1,b,peeded,143,sock,700,correct,NA,Apr 26 2023 14:07:00,Pam,1
56411,56411_session1_listb_speeded_trial144_nun.wav,1,b,peeded,144,nun,-1,wrong_word,NA,Apr 26 2023 14:07:10,Pam,1
56411,56411_session1_listb_speeded_trial145_nurse.wav,1,b,peeded,145,nurse,920,correct,NA,Apr 26 2023 14:07:13,Pam,1
56411,56411_session1_listb_speeded_trial146_back.wav,1,b,peeded,146,back,947,correct,NA,Apr 26 2023 14:07:15,Pam,1
56411,56411_session1_listb_speeded_trial147_king.wav,1,b,peeded,147,king,769,correct,NA,Apr 26 2023 14:07:18,Pam,1
56411,56411_session1_listb_speeded_trial148_glass.wav,1,b,peeded,148,glass,774,correct,NA,Apr 26 2023 14:07:21,Pam,1
56411,56411_session1_listb_speeded_trial149_telephone.wav,1,b,peeded,149,telephone,-1,wrong_word,NA,Apr 26 2023 14:07:26,Pam,1
56411,56411_session1_listb_speeded_trial150_television.wav,1,b,peeded,150,television,-1,wrong_word,NA,Apr 26 2023 14:07:37,Pam,1
