Participant_ID,File_Name,Session,List,Type_Trial,Trial_Nbr,Target,RT,Response_Trial,Comment,Date_Correction,Assessor_Name,Processed
5ed14,5ed14_session1_listb_speeded_trial001_pilot.wav,1,b,peeded,1,pilot,810,correct,NA,Apr 27 2023 08:31:33,Pam,1
5ed14,5ed14_session1_listb_speeded_trial002_scarecrow.wav,1,b,peeded,2,scarecrow,740,correct,NA,Apr 27 2023 08:31:38,Pam,1
5ed14,5ed14_session1_listb_speeded_trial003_nun.wav,1,b,peeded,3,nun,608,correct,NA,Apr 27 2023 08:32:03,Pam,1
5ed14,5ed14_session1_listb_speeded_trial004_football.wav,1,b,peeded,4,football,610,correct,NA,Apr 27 2023 08:32:14,Pam,1
5ed14,5ed14_session1_listb_speeded_trial005_balloon.wav,1,b,peeded,5,balloon,573,correct,NA,Apr 27 2023 08:32:18,Pam,1
5ed14,5ed14_session1_listb_speeded_trial006_gun.wav,1,b,peeded,6,gun,687,correct,NA,Apr 27 2023 08:32:30,Pam,1
5ed14,5ed14_session1_listb_speeded_trial007_girl.wav,1,b,peeded,7,girl,636,correct,NA,Apr 27 2023 08:32:42,Pam,1
5ed14,5ed14_session1_listb_speeded_trial008_finger.wav,1,b,peeded,8,finger,661,correct,NA,Apr 27 2023 08:32:48,Pam,1
5ed14,5ed14_session1_listb_speeded_trial009_spoon.wav,1,b,peeded,9,spoon,534,correct,NA,Apr 27 2023 08:33:09,Pam,1
5ed14,5ed14_session1_listb_speeded_trial010_condom.wav,1,b,peeded,10,condom,685,correct,NA,Apr 27 2023 08:33:21,Pam,1
5ed14,5ed14_session1_listb_speeded_trial011_pirate.wav,1,b,peeded,11,pirate,610,correct,NA,Apr 27 2023 08:33:35,Pam,1
5ed14,5ed14_session1_listb_speeded_trial012_skateboard.wav,1,b,peeded,12,skateboard,599,correct,NA,Apr 27 2023 08:33:46,Pam,1
5ed14,5ed14_session1_listb_speeded_trial013_greenhouse.wav,1,b,peeded,13,greenhouse,1024,correct,NA,Apr 27 2023 08:34:00,Pam,1
5ed14,5ed14_session1_listb_speeded_trial014_dolphin.wav,1,b,peeded,14,dolphin,-1,wrong_word,NA,Apr 27 2023 08:34:09,Pam,1
5ed14,5ed14_session1_listb_speeded_trial015_telephone.wav,1,b,peeded,15,telephone,600,correct,NA,Apr 27 2023 08:34:23,Pam,1
5ed14,5ed14_session1_listb_speeded_trial016_apron.wav,1,b,peeded,16,apron,730,correct,NA,Apr 27 2023 08:34:43,Pam,1
5ed14,5ed14_session1_listb_speeded_trial017_elephant.wav,1,b,peeded,17,elephant,657,correct,NA,Apr 27 2023 08:34:55,Pam,1
5ed14,5ed14_session1_listb_speeded_trial018_car.wav,1,b,peeded,18,car,651,correct,NA,Apr 27 2023 08:35:07,Pam,1
5ed14,5ed14_session1_listb_speeded_trial019_king.wav,1,b,peeded,19,king,671,correct,NA,Apr 27 2023 08:35:18,Pam,1
5ed14,5ed14_session1_listb_speeded_trial020_trumpet.wav,1,b,peeded,20,trumpet,633,correct,NA,Apr 27 2023 08:35:33,Pam,1
5ed14,5ed14_session1_listb_speeded_trial021_choir.wav,1,b,peeded,21,choir,743,correct,NA,Apr 27 2023 08:35:47,Pam,1
5ed14,5ed14_session1_listb_speeded_trial022_moustache.wav,1,b,peeded,22,moustache,692,correct,NA,Apr 27 2023 08:35:59,Pam,1
5ed14,5ed14_session1_listb_speeded_trial023_volcano.wav,1,b,peeded,23,volcano,729,correct,NA,Apr 27 2023 08:36:27,Pam,1
5ed14,5ed14_session1_listb_speeded_trial024_chain.wav,1,b,peeded,24,chain,763,correct,NA,Apr 27 2023 08:36:46,Pam,1
5ed14,5ed14_session1_listb_speeded_trial025_calculator.wav,1,b,peeded,25,calculator,646,correct,NA,Apr 27 2023 08:36:58,Pam,1
5ed14,5ed14_session1_listb_speeded_trial026_frog.wav,1,b,peeded,26,frog,678,correct,NA,Apr 27 2023 08:37:26,Pam,1
5ed14,5ed14_session1_listb_speeded_trial027_fruit.wav,1,b,peeded,27,fruit,667,correct,NA,Apr 27 2023 08:37:48,Pam,1
5ed14,5ed14_session1_listb_speeded_trial028_banana.wav,1,b,peeded,28,banana,661,correct,NA,Apr 27 2023 08:37:52,Pam,1
5ed14,5ed14_session1_listb_speeded_trial029_hedgehog.wav,1,b,peeded,29,hedgehog,665,correct,NA,Apr 27 2023 08:37:57,Pam,1
5ed14,5ed14_session1_listb_speeded_trial030_scorpion.wav,1,b,peeded,30,scorpion,771,correct,NA,Apr 27 2023 08:38:10,Pam,1
5ed14,5ed14_session1_listb_speeded_trial031_egg.wav,1,b,peeded,31,egg,718,correct,NA,Apr 27 2023 08:38:13,Pam,1
5ed14,5ed14_session1_listb_speeded_trial032_vein.wav,1,b,peeded,32,vein,872,correct,NA,Apr 27 2023 08:38:17,Pam,1
5ed14,5ed14_session1_listb_speeded_trial033_maze.wav,1,b,peeded,33,maze,987,correct,NA,Apr 27 2023 08:38:22,Pam,1
5ed14,5ed14_session1_listb_speeded_trial034_bra.wav,1,b,peeded,34,bra,821,correct,NA,Apr 27 2023 08:38:37,Pam,1
5ed14,5ed14_session1_listb_speeded_trial035_harp.wav,1,b,peeded,35,harp,795,correct,NA,Apr 27 2023 08:38:59,Pam,1
5ed14,5ed14_session1_listb_speeded_trial036_handle.wav,1,b,peeded,36,handle,833,correct,NA,Apr 27 2023 08:39:35,Pam,1
5ed14,5ed14_session1_listb_speeded_trial037_glasses.wav,1,b,peeded,37,glasses,780,correct,NA,Apr 27 2023 08:39:45,Pam,1
5ed14,5ed14_session1_listb_speeded_trial038_mirror.wav,1,b,peeded,38,mirror,779,correct,NA,Apr 27 2023 08:39:58,Pam,1
5ed14,5ed14_session1_listb_speeded_trial039_eye.wav,1,b,peeded,39,eye,791,correct,NA,Apr 27 2023 08:40:12,Pam,1
5ed14,5ed14_session1_listb_speeded_trial040_needle.wav,1,b,peeded,40,needle,753,correct,NA,Apr 27 2023 08:40:15,Pam,1
5ed14,5ed14_session1_listb_speeded_trial041_pumpkin.wav,1,b,peeded,41,pumpkin,709,correct,NA,Apr 27 2023 08:40:18,Pam,1
5ed14,5ed14_session1_listb_speeded_trial042_foot.wav,1,b,peeded,42,foot,642,correct,NA,Apr 27 2023 08:40:37,Pam,1
5ed14,5ed14_session1_listb_speeded_trial043_well.wav,1,b,peeded,43,well,798,correct,NA,Apr 27 2023 08:40:43,Pam,1
5ed14,5ed14_session1_listb_speeded_trial044_glass.wav,1,b,peeded,44,glass,742,correct,NA,Apr 27 2023 08:40:53,Pam,1
5ed14,5ed14_session1_listb_speeded_trial045_bible.wav,1,b,peeded,45,bible,810,correct,NA,Apr 27 2023 08:40:57,Pam,1
5ed14,5ed14_session1_listb_speeded_trial046_asparagus.wav,1,b,peeded,46,asparagus,784,correct,NA,Apr 27 2023 08:41:18,Pam,1
5ed14,5ed14_session1_listb_speeded_trial047_stapler.wav,1,b,peeded,47,stapler,747,correct,NA,Apr 27 2023 08:41:56,Pam,1
5ed14,5ed14_session1_listb_speeded_trial048_nose.wav,1,b,peeded,48,nose,701,correct,NA,Apr 27 2023 08:42:00,Pam,1
5ed14,5ed14_session1_listb_speeded_trial049_tank.wav,1,b,peeded,49,tank,877,correct,NA,Apr 27 2023 08:42:28,Pam,1
5ed14,5ed14_session1_listb_speeded_trial050_ankle.wav,1,b,peeded,50,ankle,858,correct,NA,Apr 27 2023 08:42:51,Pam,1
5ed14,5ed14_session1_listb_speeded_trial051_lizard.wav,1,b,peeded,51,lizard,983,correct,NA,Apr 27 2023 08:42:55,Pam,1
5ed14,5ed14_session1_listb_speeded_trial052_skeleton.wav,1,b,peeded,52,skeleton,776,correct,NA,Apr 27 2023 08:43:19,Pam,1
5ed14,5ed14_session1_listb_speeded_trial053_lab.wav,1,b,peeded,53,lab,851,correct,NA,Apr 27 2023 08:43:39,Pam,1
5ed14,5ed14_session1_listb_speeded_trial054_cannon.wav,1,b,peeded,54,cannon,934,correct,NA,Apr 27 2023 08:43:52,Pam,1
5ed14,5ed14_session1_listb_speeded_trial055_dog.wav,1,b,peeded,55,dog,762,correct,NA,Apr 27 2023 08:43:57,Pam,1
5ed14,5ed14_session1_listb_speeded_trial056_brain.wav,1,b,peeded,56,brain,711,correct,NA,Apr 27 2023 08:44:08,Pam,1
5ed14,5ed14_session1_listb_speeded_trial057_earring.wav,1,b,peeded,57,earring,1018,correct,NA,Apr 27 2023 08:44:17,Pam,1
5ed14,5ed14_session1_listb_speeded_trial058_door.wav,1,b,peeded,58,door,943,correct,NA,Apr 27 2023 08:44:20,Pam,1
5ed14,5ed14_session1_listb_speeded_trial059_bin.wav,1,b,peeded,59,bin,991,correct,NA,Apr 27 2023 08:44:23,Pam,1
5ed14,5ed14_session1_listb_speeded_trial060_calendar.wav,1,b,peeded,60,calendar,969,correct,NA,Apr 27 2023 08:44:36,Pam,1
5ed14,5ed14_session1_listb_speeded_trial061_coffee.wav,1,b,peeded,61,coffee,874,correct,NA,Apr 27 2023 08:44:46,Pam,1
5ed14,5ed14_session1_listb_speeded_trial062_fan.wav,1,b,peeded,62,fan,661,correct,NA,Apr 27 2023 08:45:05,Pam,1
5ed14,5ed14_session1_listb_speeded_trial063_keyboard.wav,1,b,peeded,63,keyboard,742,correct,NA,Apr 27 2023 08:45:19,Pam,1
5ed14,5ed14_session1_listb_speeded_trial064_tooth.wav,1,b,peeded,64,tooth,842,correct,NA,Apr 27 2023 08:45:27,Pam,1
5ed14,5ed14_session1_listb_speeded_trial065_button.wav,1,b,peeded,65,button,780,correct,NA,Apr 27 2023 08:45:30,Pam,1
5ed14,5ed14_session1_listb_speeded_trial066_lemon.wav,1,b,peeded,66,lemon,824,correct,NA,Apr 27 2023 08:45:46,Pam,1
5ed14,5ed14_session1_listb_speeded_trial067_sock.wav,1,b,peeded,67,sock,820,correct,NA,Apr 27 2023 08:45:53,Pam,1
5ed14,5ed14_session1_listb_speeded_trial068_dinosaur.wav,1,b,peeded,68,dinosaur,793,correct,NA,Apr 27 2023 08:46:04,Pam,1
5ed14,5ed14_session1_listb_speeded_trial069_man.wav,1,b,peeded,69,man,767,correct,NA,Apr 27 2023 08:46:07,Pam,1
5ed14,5ed14_session1_listb_speeded_trial070_wallet.wav,1,b,peeded,70,wallet,749,correct,NA,Apr 27 2023 08:46:10,Pam,1
5ed14,5ed14_session1_listb_speeded_trial071_sheep.wav,1,b,peeded,71,sheep,754,correct,NA,Apr 27 2023 08:46:24,Pam,1
5ed14,5ed14_session1_listb_speeded_trial072_scarf.wav,1,b,peeded,72,scarf,811,correct,NA,Apr 27 2023 08:46:30,Pam,1
5ed14,5ed14_session1_listb_speeded_trial073_giraffe.wav,1,b,peeded,73,giraffe,705,correct,NA,Apr 27 2023 08:46:42,Pam,1
5ed14,5ed14_session1_listb_speeded_trial074_cone.wav,1,b,peeded,74,cone,745,correct,NA,Apr 27 2023 08:46:52,Pam,1
5ed14,5ed14_session1_listb_speeded_trial075_ambulance.wav,1,b,peeded,75,ambulance,999,correct,NA,Apr 27 2023 08:47:03,Pam,1
5ed14,5ed14_session1_listb_speeded_trial076_fire.wav,1,b,peeded,76,fire,725,correct,NA,Apr 27 2023 08:47:14,Pam,1
5ed14,5ed14_session1_listb_speeded_trial077_nurse.wav,1,b,peeded,77,nurse,810,correct,NA,Apr 27 2023 08:47:19,Pam,1
5ed14,5ed14_session1_listb_speeded_trial078_shirt.wav,1,b,peeded,78,shirt,790,correct,NA,Apr 27 2023 08:47:32,Pam,1
5ed14,5ed14_session1_listb_speeded_trial079_skull.wav,1,b,peeded,79,skull,765,correct,NA,Apr 27 2023 08:47:50,Pam,1
5ed14,5ed14_session1_listb_speeded_trial080_bed.wav,1,b,peeded,80,bed,871,correct,NA,Apr 27 2023 08:48:08,Pam,1
5ed14,5ed14_session1_listb_speeded_trial081_bat.wav,1,b,peeded,81,bat,795,correct,NA,Apr 27 2023 08:48:20,Pam,1
5ed14,5ed14_session1_listb_speeded_trial082_torch.wav,1,b,peeded,82,torch,798,correct,NA,Apr 27 2023 08:48:32,Pam,1
5ed14,5ed14_session1_listb_speeded_trial083_sink.wav,1,b,peeded,83,sink,743,correct,NA,Apr 27 2023 08:48:45,Pam,1
5ed14,5ed14_session1_listb_speeded_trial084_burger.wav,1,b,peeded,84,burger,772,correct,NA,Apr 27 2023 08:48:56,Pam,1
5ed14,5ed14_session1_listb_speeded_trial085_hand.wav,1,b,peeded,85,hand,664,correct,NA,Apr 27 2023 08:49:07,Pam,1
5ed14,5ed14_session1_listb_speeded_trial086_cowboy.wav,1,b,peeded,86,cowboy,830,correct,NA,Apr 27 2023 08:49:22,Pam,1
5ed14,5ed14_session1_listb_speeded_trial087_face.wav,1,b,peeded,87,face,714,correct,NA,Apr 27 2023 08:49:35,Pam,1
5ed14,5ed14_session1_listb_speeded_trial088_umbrella.wav,1,b,peeded,88,umbrella,719,correct,NA,Apr 27 2023 08:49:50,Pam,1
5ed14,5ed14_session1_listb_speeded_trial089_microphone.wav,1,b,peeded,89,microphone,890,correct,NA,Apr 27 2023 08:50:03,Pam,1
5ed14,5ed14_session1_listb_speeded_trial090_camera.wav,1,b,peeded,90,camera,903,correct,NA,Apr 27 2023 08:50:07,Pam,1
5ed14,5ed14_session1_listb_speeded_trial091_hair.wav,1,b,peeded,91,hair,761,correct,NA,Apr 27 2023 08:50:32,Pam,1
5ed14,5ed14_session1_listb_speeded_trial092_shadow.wav,1,b,peeded,92,shadow,1054,correct,NA,Apr 27 2023 08:50:42,Pam,1
5ed14,5ed14_session1_listb_speeded_trial093_belt.wav,1,b,peeded,93,belt,842,correct,NA,Apr 27 2023 08:50:45,Pam,1
5ed14,5ed14_session1_listb_speeded_trial094_spider.wav,1,b,peeded,94,spider,679,correct,NA,Apr 27 2023 08:50:54,Pam,1
5ed14,5ed14_session1_listb_speeded_trial095_desert.wav,1,b,peeded,95,desert,794,uncertain,NA,Apr 27 2023 08:51:07,Pam,1
5ed14,5ed14_session1_listb_speeded_trial096_farm.wav,1,b,peeded,96,farm,732,correct,NA,Apr 27 2023 08:51:19,Pam,1
5ed14,5ed14_session1_listb_speeded_trial097_coconut.wav,1,b,peeded,97,coconut,761,correct,NA,Apr 27 2023 08:51:31,Pam,1
5ed14,5ed14_session1_listb_speeded_trial098_roof.wav,1,b,peeded,98,roof,1132,correct,NA,Apr 27 2023 08:51:42,Pam,1
5ed14,5ed14_session1_listb_speeded_trial099_broccoli.wav,1,b,peeded,99,broccoli,775,correct,NA,Apr 27 2023 08:51:45,Pam,1
5ed14,5ed14_session1_listb_speeded_trial100_penguin.wav,1,b,peeded,100,penguin,646,correct,NA,Apr 27 2023 08:51:58,Pam,1
5ed14,5ed14_session1_listb_speeded_trial101_guitar.wav,1,b,peeded,101,guitar,612,correct,NA,Apr 27 2023 08:52:07,Pam,1
5ed14,5ed14_session1_listb_speeded_trial102_diamond.wav,1,b,peeded,102,diamond,674,correct,NA,Apr 27 2023 08:52:20,Pam,1
5ed14,5ed14_session1_listb_speeded_trial103_knee.wav,1,b,peeded,103,knee,762,correct,NA,Apr 27 2023 08:52:23,Pam,1
5ed14,5ed14_session1_listb_speeded_trial104_television.wav,1,b,peeded,104,television,-1,correct,NA,Apr 27 2023 08:52:30,Pam,1
5ed14,5ed14_session1_listb_speeded_trial105_broom.wav,1,b,peeded,105,broom,920,correct,NA,Apr 27 2023 08:52:44,Pam,1
5ed14,5ed14_session1_listb_speeded_trial106_printer.wav,1,b,peeded,106,printer,822,correct,NA,Apr 27 2023 08:52:56,Pam,1
5ed14,5ed14_session1_listb_speeded_trial107_crown.wav,1,b,peeded,107,crown,747,correct,NA,Apr 27 2023 08:53:09,Pam,1
5ed14,5ed14_session1_listb_speeded_trial108_pizza.wav,1,b,peeded,108,pizza,711,correct,NA,Apr 27 2023 08:53:22,Pam,1
5ed14,5ed14_session1_listb_speeded_trial109_honey.wav,1,b,peeded,109,honey,674,correct,NA,Apr 27 2023 08:53:41,Pam,1
5ed14,5ed14_session1_listb_speeded_trial110_boomerang.wav,1,b,peeded,110,boomerang,974,correct,NA,Apr 27 2023 08:53:50,Pam,1
5ed14,5ed14_session1_listb_speeded_trial111_snail.wav,1,b,peeded,111,snail,664,correct,NA,Apr 27 2023 08:54:07,Pam,1
5ed14,5ed14_session1_listb_speeded_trial112_beard.wav,1,b,peeded,112,beard,700,correct,NA,Apr 27 2023 08:54:24,Pam,1
5ed14,5ed14_session1_listb_speeded_trial113_back.wav,1,b,peeded,113,back,797,correct,NA,Apr 27 2023 08:54:34,Pam,1
5ed14,5ed14_session1_listb_speeded_trial114_ring.wav,1,b,peeded,114,ring,688,correct,NA,Apr 27 2023 08:54:47,Pam,1
5ed14,5ed14_session1_listb_speeded_trial115_cactus.wav,1,b,peeded,115,cactus,639,correct,NA,Apr 27 2023 08:55:02,Pam,1
5ed14,5ed14_session1_listb_speeded_trial116_lion.wav,1,b,peeded,116,lion,626,correct,NA,Apr 27 2023 08:55:11,Pam,1
5ed14,5ed14_session1_listb_speeded_trial117_feather.wav,1,b,peeded,117,feather,642,correct,NA,Apr 27 2023 08:55:21,Pam,1
5ed14,5ed14_session1_listb_speeded_trial118_thermometer.wav,1,b,peeded,118,thermometer,810,correct,NA,Apr 27 2023 08:55:36,Pam,1
5ed14,5ed14_session1_listb_speeded_trial119_parrot.wav,1,b,peeded,119,parrot,750,correct,NA,Apr 27 2023 08:55:46,Pam,1
5ed14,5ed14_session1_listb_speeded_trial120_witch.wav,1,b,peeded,120,witch,674,correct,NA,Apr 27 2023 08:55:51,Pam,1
5ed14,5ed14_session1_listb_speeded_trial121_iron.wav,1,b,peeded,121,iron,748,correct,NA,Apr 27 2023 08:56:02,Pam,1
5ed14,5ed14_session1_listb_speeded_trial122_chair.wav,1,b,peeded,122,chair,668,correct,NA,Apr 27 2023 08:56:15,Pam,1
5ed14,5ed14_session1_listb_speeded_trial123_dragon.wav,1,b,peeded,123,dragon,679,correct,NA,Apr 27 2023 08:56:48,Pam,1
5ed14,5ed14_session1_listb_speeded_trial124_road.wav,1,b,peeded,124,road,718,correct,NA,Apr 27 2023 08:56:52,Pam,1
5ed14,5ed14_session1_listb_speeded_trial125_swimming.wav,1,b,peeded,125,swimming,795,correct,NA,Apr 27 2023 08:57:09,Pam,1
5ed14,5ed14_session1_listb_speeded_trial126_cage.wav,1,b,peeded,126,cage,1009,correct,NA,Apr 27 2023 08:57:20,Pam,1
5ed14,5ed14_session1_listb_speeded_trial127_dentist.wav,1,b,peeded,127,dentist,-1,wrong_word,NA,Apr 27 2023 08:57:28,Pam,1
5ed14,5ed14_session1_listb_speeded_trial128_bedroom.wav,1,b,peeded,128,bedroom,1335,correct,NA,Apr 27 2023 08:57:59,Pam,1
5ed14,5ed14_session1_listb_speeded_trial129_waiter.wav,1,b,peeded,129,waiter,886,correct,NA,Apr 27 2023 08:58:01,Pam,1
5ed14,5ed14_session1_listb_speeded_trial130_mask.wav,1,b,peeded,130,mask,948,correct,NA,Apr 27 2023 08:58:11,Pam,1
5ed14,5ed14_session1_listb_speeded_trial131_strawberry.wav,1,b,peeded,131,strawberry,703,correct,NA,Apr 27 2023 08:58:20,Pam,1
5ed14,5ed14_session1_listb_speeded_trial132_caravan.wav,1,b,peeded,132,caravan,867,correct,NA,Apr 27 2023 08:58:35,Pam,1
5ed14,5ed14_session1_listb_speeded_trial133_devil.wav,1,b,peeded,133,devil,1124,correct,NA,Apr 27 2023 08:58:38,Pam,1
5ed14,5ed14_session1_listb_speeded_trial134_shark.wav,1,b,peeded,134,shark,881,correct,NA,Apr 27 2023 08:58:45,Pam,1
5ed14,5ed14_session1_listb_speeded_trial135_house.wav,1,b,peeded,135,house,646,correct,NA,Apr 27 2023 08:58:55,Pam,1
5ed14,5ed14_session1_listb_speeded_trial136_heart.wav,1,b,peeded,136,heart,-1,no_resp,NA,Apr 27 2023 08:59:02,Pam,1
5ed14,5ed14_session1_listb_speeded_trial137_cloud.wav,1,b,peeded,137,cloud,-1,no_resp,NA,Apr 27 2023 08:59:09,Pam,1
5ed14,5ed14_session1_listb_speeded_trial138_jar.wav,1,b,peeded,138,jar,-1,no_resp,NA,Apr 27 2023 08:59:18,Pam,1
5ed14,5ed14_session1_listb_speeded_trial139_watch.wav,1,b,peeded,139,watch,1256,correct,NA,Apr 27 2023 08:59:28,Pam,1
5ed14,5ed14_session1_listb_speeded_trial140_parachute.wav,1,b,peeded,140,parachute,843,correct,NA,Apr 27 2023 08:59:40,Pam,1
5ed14,5ed14_session1_listb_speeded_trial141_butcher.wav,1,b,peeded,141,butcher,753,correct,NA,Apr 27 2023 08:59:44,Pam,1
5ed14,5ed14_session1_listb_speeded_trial142_fist.wav,1,b,peeded,142,fist,699,correct,NA,Apr 27 2023 09:00:02,Pam,1
5ed14,5ed14_session1_listb_speeded_trial143_baby.wav,1,b,peeded,143,baby,634,correct,NA,Apr 27 2023 09:00:21,Pam,1
5ed14,5ed14_session1_listb_speeded_trial144_pool.wav,1,b,peeded,144,pool,-1,wrong_word,NA,Apr 27 2023 09:00:31,Pam,1
5ed14,5ed14_session1_listb_speeded_trial145_duck.wav,1,b,peeded,145,duck,753,correct,NA,Apr 27 2023 09:00:35,Pam,1
5ed14,5ed14_session1_listb_speeded_trial146_airport.wav,1,b,peeded,146,airport,930,correct,NA,Apr 27 2023 09:00:39,Pam,1
5ed14,5ed14_session1_listb_speeded_trial147_leaf.wav,1,b,peeded,147,leaf,696,correct,NA,Apr 27 2023 09:00:43,Pam,1
5ed14,5ed14_session1_listb_speeded_trial148_screwdriver.wav,1,b,peeded,148,screwdriver,852,correct,NA,Apr 27 2023 09:00:53,Pam,1
5ed14,5ed14_session1_listb_speeded_trial149_cigarette.wav,1,b,peeded,149,cigarette,631,correct,NA,Apr 27 2023 09:01:04,Pam,1
5ed14,5ed14_session1_listb_speeded_trial150_coffin.wav,1,b,peeded,150,coffin,691,correct,NA,Apr 27 2023 09:01:13,Pam,1
