Participant_ID,File_Name,Session,List,Type_Trial,Trial_Nbr,Target,RT,Response_Trial,Comment,Date_Correction,Assessor_Name,Processed
5ae9c,5ae9c_session1_listb_speeded_trial001_dog.wav,1,b,peeded,1,dog,800,correct,NA,Apr  6 2023 11:37:13,Agnieszka,1
5ae9c,5ae9c_session1_listb_speeded_trial002_banana.wav,1,b,peeded,2,banana,741,correct,NA,Apr  6 2023 11:37:21,Agnieszka,1
5ae9c,5ae9c_session1_listb_speeded_trial003_choir.wav,1,b,peeded,3,choir,1220,correct,NA,Apr  6 2023 11:37:35,Agnieszka,1
5ae9c,5ae9c_session1_listb_speeded_trial004_road.wav,1,b,peeded,4,road,840,correct,NA,Apr  6 2023 11:37:41,Agnieszka,1
5ae9c,5ae9c_session1_listb_speeded_trial005_nun.wav,1,b,peeded,5,nun,759,correct,NA,Apr  6 2023 11:37:48,Agnieszka,1
5ae9c,5ae9c_session1_listb_speeded_trial006_crown.wav,1,b,peeded,6,crown,837,correct,NA,Apr  6 2023 11:37:59,Agnieszka,1
5ae9c,5ae9c_session1_listb_speeded_trial007_needle.wav,1,b,peeded,7,needle,808,correct,NA,Apr  6 2023 11:38:10,Agnieszka,1
5ae9c,5ae9c_session1_listb_speeded_trial008_giraffe.wav,1,b,peeded,8,giraffe,731,correct,NA,Apr  6 2023 11:38:26,Agnieszka,1
5ae9c,5ae9c_session1_listb_speeded_trial009_hand.wav,1,b,peeded,9,hand,716,correct,NA,Apr  6 2023 11:38:36,Agnieszka,1
5ae9c,5ae9c_session1_listb_speeded_trial010_face.wav,1,b,peeded,10,face,852,correct,NA,Apr  6 2023 11:38:46,Agnieszka,1
5ae9c,5ae9c_session1_listb_speeded_trial011_duck.wav,1,b,peeded,11,duck,906,correct,NA,Apr  6 2023 11:38:52,Agnieszka,1
5ae9c,5ae9c_session1_listb_speeded_trial012_parrot.wav,1,b,peeded,12,parrot,985,correct,NA,Apr  6 2023 11:39:00,Agnieszka,1
5ae9c,5ae9c_session1_listb_speeded_trial013_lion.wav,1,b,peeded,13,lion,761,correct,NA,Apr  6 2023 11:40:55,Agnieszka,1
5ae9c,5ae9c_session1_listb_speeded_trial014_scorpion.wav,1,b,peeded,14,scorpion,874,uncertain,"the quality is quite low in most words, not sure if the 's' here is even audible",Apr  6 2023 11:41:34,Agnieszka,1
5ae9c,5ae9c_session1_listb_speeded_trial015_egg.wav,1,b,peeded,15,egg,869,correct,NA,Apr  6 2023 11:41:45,Agnieszka,1
5ae9c,5ae9c_session1_listb_speeded_trial016_gun.wav,1,b,peeded,16,gun,842,correct,NA,Apr  6 2023 11:41:50,Agnieszka,1
5ae9c,5ae9c_session1_listb_speeded_trial017_pizza.wav,1,b,peeded,17,pizza,829,correct,NA,Apr  6 2023 11:41:57,Agnieszka,1
5ae9c,5ae9c_session1_listb_speeded_trial018_cone.wav,1,b,peeded,18,cone,748,correct,NA,Apr  6 2023 11:42:05,Agnieszka,1
5ae9c,5ae9c_session1_listb_speeded_trial019_king.wav,1,b,peeded,19,king,1090,correct,NA,Apr  6 2023 11:42:12,Agnieszka,1
5ae9c,5ae9c_session1_listb_speeded_trial020_bed.wav,1,b,peeded,20,bed,837,correct,NA,Apr  6 2023 11:42:18,Agnieszka,1
5ae9c,5ae9c_session1_listb_speeded_trial021_chain.wav,1,b,peeded,21,chain,803,correct,NA,Apr  6 2023 11:42:26,Agnieszka,1
5ae9c,5ae9c_session1_listb_speeded_trial022_lab.wav,1,b,peeded,22,lab,968,correct,NA,Apr  6 2023 11:42:31,Agnieszka,1
5ae9c,5ae9c_session1_listb_speeded_trial023_baby.wav,1,b,peeded,23,baby,780,correct,NA,Apr  6 2023 11:42:37,Agnieszka,1
5ae9c,5ae9c_session1_listb_speeded_trial024_fist.wav,1,b,peeded,24,fist,861,correct,NA,Apr  6 2023 11:42:47,Agnieszka,1
5ae9c,5ae9c_session1_listb_speeded_trial025_tank.wav,1,b,peeded,25,tank,952,correct,NA,Apr  6 2023 11:42:56,Agnieszka,1
5ae9c,5ae9c_session1_listb_speeded_trial026_greenhouse.wav,1,b,peeded,26,greenhouse,-1,disfluency,NA,Apr  6 2023 11:43:01,Agnieszka,1
5ae9c,5ae9c_session1_listb_speeded_trial027_balloon.wav,1,b,peeded,27,balloon,756,correct,NA,Apr  6 2023 11:43:08,Agnieszka,1
5ae9c,5ae9c_session1_listb_speeded_trial028_screwdriver.wav,1,b,peeded,28,screwdriver,1156,correct,last syllable cut off,Apr  6 2023 11:43:24,Agnieszka,1
5ae9c,5ae9c_session1_listb_speeded_trial029_heart.wav,1,b,peeded,29,heart,761,correct,NA,Apr  6 2023 11:43:34,Agnieszka,1
5ae9c,5ae9c_session1_listb_speeded_trial030_cannon.wav,1,b,peeded,30,cannon,872,correct,NA,Apr  6 2023 11:47:33,Agnieszka,1
5ae9c,5ae9c_session1_listb_speeded_trial031_dentist.wav,1,b,peeded,31,dentist,1120,correct,NA,Apr  6 2023 11:47:39,Agnieszka,1
5ae9c,5ae9c_session1_listb_speeded_trial032_thermometer.wav,1,b,peeded,32,thermometer,1140,correct,slightly cut off,Apr  6 2023 11:47:50,Agnieszka,1
5ae9c,5ae9c_session1_listb_speeded_trial033_eye.wav,1,b,peeded,33,eye,815,correct,NA,Apr  6 2023 11:48:18,Agnieszka,1
5ae9c,5ae9c_session1_listb_speeded_trial034_fire.wav,1,b,peeded,34,fire,810,correct,NA,Apr  6 2023 11:48:48,Agnieszka,1
5ae9c,5ae9c_session1_listb_speeded_trial035_burger.wav,1,b,peeded,35,burger,810,correct,NA,Apr  6 2023 11:48:54,Agnieszka,1
5ae9c,5ae9c_session1_listb_speeded_trial036_apron.wav,1,b,peeded,36,apron,840,correct,NA,Apr  6 2023 11:48:59,Agnieszka,1
5ae9c,5ae9c_session1_listb_speeded_trial037_pumpkin.wav,1,b,peeded,37,pumpkin,791,correct,NA,Apr  6 2023 11:49:07,Agnieszka,1
5ae9c,5ae9c_session1_listb_speeded_trial038_elephant.wav,1,b,peeded,38,elephant,834,correct,NA,Apr  6 2023 11:49:16,Agnieszka,1
5ae9c,5ae9c_session1_listb_speeded_trial039_keyboard.wav,1,b,peeded,39,keyboard,807,correct,NA,Apr  6 2023 11:49:23,Agnieszka,1
5ae9c,5ae9c_session1_listb_speeded_trial040_glasses.wav,1,b,peeded,40,glasses,800,correct,NA,Apr  6 2023 11:49:29,Agnieszka,1
5ae9c,5ae9c_session1_listb_speeded_trial041_cigarette.wav,1,b,peeded,41,cigarette,864,correct,NA,Apr  6 2023 11:49:40,Agnieszka,1
5ae9c,5ae9c_session1_listb_speeded_trial042_lemon.wav,1,b,peeded,42,lemon,825,correct,NA,Apr  6 2023 11:50:02,Agnieszka,1
5ae9c,5ae9c_session1_listb_speeded_trial043_dolphin.wav,1,b,peeded,43,dolphin,758,correct,NA,Apr  6 2023 11:50:08,Agnieszka,1
5ae9c,5ae9c_session1_listb_speeded_trial044_printer.wav,1,b,peeded,44,printer,923,correct,NA,Apr  6 2023 11:50:17,Agnieszka,1
5ae9c,5ae9c_session1_listb_speeded_trial045_harp.wav,1,b,peeded,45,harp,803,correct,NA,Apr  6 2023 11:50:27,Agnieszka,1
5ae9c,5ae9c_session1_listb_speeded_trial046_ankle.wav,1,b,peeded,46,ankle,972,correct,NA,Apr  6 2023 11:50:34,Agnieszka,1
5ae9c,5ae9c_session1_listb_speeded_trial047_sheep.wav,1,b,peeded,47,sheep,896,correct,NA,Apr  6 2023 11:50:43,Agnieszka,1
5ae9c,5ae9c_session1_listb_speeded_trial048_honey.wav,1,b,peeded,48,honey,953,correct,NA,Apr  6 2023 11:50:48,Agnieszka,1
5ae9c,5ae9c_session1_listb_speeded_trial049_well.wav,1,b,peeded,49,well,921,correct,NA,Apr  6 2023 11:50:54,Agnieszka,1
5ae9c,5ae9c_session1_listb_speeded_trial050_earring.wav,1,b,peeded,50,earring,916,correct,NA,Apr  6 2023 11:50:59,Agnieszka,1
5ae9c,5ae9c_session1_listb_speeded_trial051_witch.wav,1,b,peeded,51,witch,810,correct,NA,Apr  6 2023 11:51:03,Agnieszka,1
5ae9c,5ae9c_session1_listb_speeded_trial052_watch.wav,1,b,peeded,52,watch,798,correct,NA,Apr  6 2023 11:51:11,Agnieszka,1
5ae9c,5ae9c_session1_listb_speeded_trial053_stapler.wav,1,b,peeded,53,stapler,883,uncertain,not sure if the initial 's' got recorded,Apr  6 2023 11:51:46,Agnieszka,1
5ae9c,5ae9c_session1_listb_speeded_trial054_bin.wav,1,b,peeded,54,bin,852,correct,NA,Apr  6 2023 11:51:51,Agnieszka,1
5ae9c,5ae9c_session1_listb_speeded_trial055_girl.wav,1,b,peeded,55,girl,886,correct,NA,Apr  6 2023 11:51:58,Agnieszka,1
5ae9c,5ae9c_session1_listb_speeded_trial056_iron.wav,1,b,peeded,56,iron,891,correct,NA,Apr  6 2023 11:52:09,Agnieszka,1
5ae9c,5ae9c_session1_listb_speeded_trial057_microphone.wav,1,b,peeded,57,microphone,893,correct,NA,Apr  6 2023 11:52:14,Agnieszka,1
5ae9c,5ae9c_session1_listb_speeded_trial058_car.wav,1,b,peeded,58,car,958,correct,NA,Apr  6 2023 11:52:29,Agnieszka,1
5ae9c,5ae9c_session1_listb_speeded_trial059_scarf.wav,1,b,peeded,59,scarf,972,uncertain,not sure about the initial 's',Apr  6 2023 11:53:34,Agnieszka,1
5ae9c,5ae9c_session1_listb_speeded_trial060_skeleton.wav,1,b,peeded,60,skeleton,920,uncertain,not sure about the 's',Apr  6 2023 11:54:09,Agnieszka,1
5ae9c,5ae9c_session1_listb_speeded_trial061_mirror.wav,1,b,peeded,61,mirror,783,correct,NA,Apr  6 2023 11:54:19,Agnieszka,1
5ae9c,5ae9c_session1_listb_speeded_trial062_calendar.wav,1,b,peeded,62,calendar,1065,correct,NA,Apr  6 2023 11:54:39,Agnieszka,1
5ae9c,5ae9c_session1_listb_speeded_trial063_chair.wav,1,b,peeded,63,chair,889,correct,NA,Apr  6 2023 11:55:11,Agnieszka,1
5ae9c,5ae9c_session1_listb_speeded_trial064_nose.wav,1,b,peeded,64,nose,785,correct,NA,Apr  6 2023 11:55:17,Agnieszka,1
5ae9c,5ae9c_session1_listb_speeded_trial065_dragon.wav,1,b,peeded,65,dragon,763,correct,NA,Apr  6 2023 11:55:28,Agnieszka,1
5ae9c,5ae9c_session1_listb_speeded_trial066_sink.wav,1,b,peeded,66,sink,889,uncertain,not sure about the s again,Apr  6 2023 11:55:46,Agnieszka,1
5ae9c,5ae9c_session1_listb_speeded_trial067_leaf.wav,1,b,peeded,67,leaf,797,correct,NA,Apr  6 2023 11:55:51,Agnieszka,1
5ae9c,5ae9c_session1_listb_speeded_trial068_volcano.wav,1,b,peeded,68,volcano,982,correct,NA,Apr  6 2023 11:55:56,Agnieszka,1
5ae9c,5ae9c_session1_listb_speeded_trial069_shirt.wav,1,b,peeded,69,shirt,842,correct,NA,Apr  6 2023 11:56:04,Agnieszka,1
5ae9c,5ae9c_session1_listb_speeded_trial070_button.wav,1,b,peeded,70,button,867,correct,NA,Apr  6 2023 11:56:10,Agnieszka,1
5ae9c,5ae9c_session1_listb_speeded_trial071_devil.wav,1,b,peeded,71,devil,842,correct,NA,Apr  6 2023 11:56:15,Agnieszka,1
5ae9c,5ae9c_session1_listb_speeded_trial072_waiter.wav,1,b,peeded,72,waiter,940,correct,NA,Apr  6 2023 11:56:21,Agnieszka,1
5ae9c,5ae9c_session1_listb_speeded_trial073_lizard.wav,1,b,peeded,73,lizard,925,correct,NA,Apr  6 2023 11:56:26,Agnieszka,1
5ae9c,5ae9c_session1_listb_speeded_trial074_television.wav,1,b,peeded,74,television,1053,correct,slightly cut off,Apr  6 2023 11:57:04,Agnieszka,1
5ae9c,5ae9c_session1_listb_speeded_trial075_butcher.wav,1,b,peeded,75,butcher,1124,correct,NA,Apr  6 2023 11:57:11,Agnieszka,1
5ae9c,5ae9c_session1_listb_speeded_trial076_fan.wav,1,b,peeded,76,fan,815,correct,NA,Apr  6 2023 11:58:14,Agnieszka,1
5ae9c,5ae9c_session1_listb_speeded_trial077_bible.wav,1,b,peeded,77,bible,862,correct,NA,Apr  6 2023 11:58:19,Agnieszka,1
5ae9c,5ae9c_session1_listb_speeded_trial078_spoon.wav,1,b,peeded,78,spoon,739,correct,NA,Apr  6 2023 11:58:30,Agnieszka,1
5ae9c,5ae9c_session1_listb_speeded_trial079_snail.wav,1,b,peeded,79,snail,795,correct,NA,Apr  6 2023 11:58:42,Agnieszka,1
5ae9c,5ae9c_session1_listb_speeded_trial080_dinosaur.wav,1,b,peeded,80,dinosaur,830,correct,NA,Apr  6 2023 11:58:49,Agnieszka,1
5ae9c,5ae9c_session1_listb_speeded_trial081_glass.wav,1,b,peeded,81,glass,813,correct,NA,Apr  6 2023 11:59:02,Agnieszka,1
5ae9c,5ae9c_session1_listb_speeded_trial082_back.wav,1,b,peeded,82,back,920,correct,NA,Apr  6 2023 11:59:08,Agnieszka,1
5ae9c,5ae9c_session1_listb_speeded_trial083_mask.wav,1,b,peeded,83,mask,877,correct,NA,Apr  6 2023 11:59:13,Agnieszka,1
5ae9c,5ae9c_session1_listb_speeded_trial084_shark.wav,1,b,peeded,84,shark,1026,correct,NA,Apr  6 2023 11:59:19,Agnieszka,1
5ae9c,5ae9c_session1_listb_speeded_trial085_handle.wav,1,b,peeded,85,handle,-1,wrong_word,NA,Apr  6 2023 11:59:26,Agnieszka,1
5ae9c,5ae9c_session1_listb_speeded_trial086_brain.wav,1,b,peeded,86,brain,901,correct,NA,Apr  6 2023 11:59:34,Agnieszka,1
5ae9c,5ae9c_session1_listb_speeded_trial087_foot.wav,1,b,peeded,87,foot,859,correct,NA,Apr  6 2023 12:00:17,Agnieszka,1
5ae9c,5ae9c_session1_listb_speeded_trial088_camera.wav,1,b,peeded,88,camera,807,correct,NA,Apr  6 2023 12:00:27,Agnieszka,1
5ae9c,5ae9c_session1_listb_speeded_trial089_airport.wav,1,b,peeded,89,airport,1076,correct,NA,Apr  6 2023 12:00:35,Agnieszka,1
5ae9c,5ae9c_session1_listb_speeded_trial090_door.wav,1,b,peeded,90,door,1051,correct,NA,Apr  6 2023 12:00:41,Agnieszka,1
5ae9c,5ae9c_session1_listb_speeded_trial091_football.wav,1,b,peeded,91,football,842,correct,NA,Apr  6 2023 12:00:49,Agnieszka,1
5ae9c,5ae9c_session1_listb_speeded_trial092_sock.wav,1,b,peeded,92,sock,1044,correct,NA,Apr  6 2023 12:00:57,Agnieszka,1
5ae9c,5ae9c_session1_listb_speeded_trial093_desert.wav,1,b,peeded,93,desert,1090,correct,NA,Apr  6 2023 12:01:04,Agnieszka,1
5ae9c,5ae9c_session1_listb_speeded_trial094_hedgehog.wav,1,b,peeded,94,hedgehog,832,correct,NA,Apr  6 2023 12:01:14,Agnieszka,1
5ae9c,5ae9c_session1_listb_speeded_trial095_pool.wav,1,b,peeded,95,pool,889,correct,NA,Apr  6 2023 12:01:20,Agnieszka,1
5ae9c,5ae9c_session1_listb_speeded_trial096_condom.wav,1,b,peeded,96,condom,942,correct,NA,Apr  6 2023 12:01:26,Agnieszka,1
5ae9c,5ae9c_session1_listb_speeded_trial097_umbrella.wav,1,b,peeded,97,umbrella,845,correct,NA,Apr  6 2023 12:01:31,Agnieszka,1
5ae9c,5ae9c_session1_listb_speeded_trial098_wallet.wav,1,b,peeded,98,wallet,940,correct,NA,Apr  6 2023 12:01:37,Agnieszka,1
5ae9c,5ae9c_session1_listb_speeded_trial099_tooth.wav,1,b,peeded,99,tooth,864,correct,NA,Apr  6 2023 12:01:46,Agnieszka,1
5ae9c,5ae9c_session1_listb_speeded_trial100_trumpet.wav,1,b,peeded,100,trumpet,845,correct,NA,Apr  6 2023 12:01:52,Agnieszka,1
5ae9c,5ae9c_session1_listb_speeded_trial101_strawberry.wav,1,b,peeded,101,strawberry,795,correct,NA,Apr  6 2023 12:02:18,Agnieszka,1
5ae9c,5ae9c_session1_listb_speeded_trial102_bra.wav,1,b,peeded,102,bra,909,correct,NA,Apr  6 2023 12:02:24,Agnieszka,1
5ae9c,5ae9c_session1_listb_speeded_trial103_cowboy.wav,1,b,peeded,103,cowboy,926,correct,NA,Apr  6 2023 12:02:32,Agnieszka,1
5ae9c,5ae9c_session1_listb_speeded_trial104_ring.wav,1,b,peeded,104,ring,756,correct,NA,Apr  6 2023 12:02:38,Agnieszka,1
5ae9c,5ae9c_session1_listb_speeded_trial105_knee.wav,1,b,peeded,105,knee,1161,correct,NA,Apr  6 2023 12:02:48,Agnieszka,1
5ae9c,5ae9c_session1_listb_speeded_trial106_diamond.wav,1,b,peeded,106,diamond,854,correct,NA,Apr  6 2023 12:02:57,Agnieszka,1
5ae9c,5ae9c_session1_listb_speeded_trial107_finger.wav,1,b,peeded,107,finger,1028,correct,NA,Apr  6 2023 12:03:03,Agnieszka,1
5ae9c,5ae9c_session1_listb_speeded_trial108_house.wav,1,b,peeded,108,house,827,correct,NA,Apr  6 2023 12:03:11,Agnieszka,1
5ae9c,5ae9c_session1_listb_speeded_trial109_fruit.wav,1,b,peeded,109,fruit,840,correct,NA,Apr  6 2023 12:05:51,Agnieszka,1
5ae9c,5ae9c_session1_listb_speeded_trial110_hair.wav,1,b,peeded,110,hair,909,correct,NA,Apr  6 2023 12:05:52,Agnieszka,1
5ae9c,5ae9c_session1_listb_speeded_trial111_swimming.wav,1,b,peeded,111,swimming,930,correct,NA,Apr  6 2023 12:05:52,Agnieszka,1
5ae9c,5ae9c_session1_listb_speeded_trial112_jar.wav,1,b,peeded,112,jar,1402,correct,NA,Apr  6 2023 12:05:52,Agnieszka,1
5ae9c,5ae9c_session1_listb_speeded_trial113_feather.wav,1,b,peeded,113,feather,898,correct,NA,Apr  6 2023 12:05:53,Agnieszka,1
5ae9c,5ae9c_session1_listb_speeded_trial114_skateboard.wav,1,b,peeded,114,skateboard,918,correct,cannot hear the initial 's',Apr  6 2023 12:06:03,Agnieszka,1
5ae9c,5ae9c_session1_listb_speeded_trial115_shadow.wav,1,b,peeded,115,shadow,1092,correct,NA,Apr  6 2023 12:06:04,Agnieszka,1
5ae9c,5ae9c_session1_listb_speeded_trial116_maze.wav,1,b,peeded,116,maze,884,correct,NA,Apr  6 2023 12:06:05,Agnieszka,1
5ae9c,5ae9c_session1_listb_speeded_trial117_coffee.wav,1,b,peeded,117,coffee,963,correct,NA,Apr  6 2023 12:06:06,Agnieszka,1
5ae9c,5ae9c_session1_listb_speeded_trial118_coconut.wav,1,b,peeded,118,coconut,957,correct,NA,Apr  6 2023 12:06:07,Agnieszka,1
5ae9c,5ae9c_session1_listb_speeded_trial119_spider.wav,1,b,peeded,119,spider,815,correct,NA,Apr  6 2023 12:06:36,Agnieszka,1
5ae9c,5ae9c_session1_listb_speeded_trial120_nurse.wav,1,b,peeded,120,nurse,872,correct,NA,Apr  6 2023 12:06:42,Agnieszka,1
5ae9c,5ae9c_session1_listb_speeded_trial121_coffin.wav,1,b,peeded,121,coffin,884,correct,NA,Apr  6 2023 12:06:53,Agnieszka,1
5ae9c,5ae9c_session1_listb_speeded_trial122_parachute.wav,1,b,peeded,122,parachute,1314,correct,cut off,Apr  6 2023 12:07:05,Agnieszka,1
5ae9c,5ae9c_session1_listb_speeded_trial123_pilot.wav,1,b,peeded,123,pilot,1038,correct,NA,Apr  6 2023 12:07:18,Agnieszka,1
5ae9c,5ae9c_session1_listb_speeded_trial124_skull.wav,1,b,peeded,124,skull,867,correct,NA,Apr  6 2023 12:07:29,Agnieszka,1
5ae9c,5ae9c_session1_listb_speeded_trial125_caravan.wav,1,b,peeded,125,caravan,837,correct,NA,Apr  6 2023 12:07:37,Agnieszka,1
5ae9c,5ae9c_session1_listb_speeded_trial126_roof.wav,1,b,peeded,126,roof,-1,no_resp,NA,Apr  6 2023 12:07:43,Agnieszka,1
5ae9c,5ae9c_session1_listb_speeded_trial127_cactus.wav,1,b,peeded,127,cactus,901,correct,NA,Apr  6 2023 12:07:50,Agnieszka,1
5ae9c,5ae9c_session1_listb_speeded_trial128_torch.wav,1,b,peeded,128,torch,936,correct,NA,Apr  6 2023 12:08:01,Agnieszka,1
5ae9c,5ae9c_session1_listb_speeded_trial129_calculator.wav,1,b,peeded,129,calculator,839,correct,NA,Apr  6 2023 12:08:09,Agnieszka,1
5ae9c,5ae9c_session1_listb_speeded_trial130_frog.wav,1,b,peeded,130,frog,989,correct,NA,Apr  6 2023 12:08:18,Agnieszka,1
5ae9c,5ae9c_session1_listb_speeded_trial131_boomerang.wav,1,b,peeded,131,boomerang,1017,correct,NA,Apr  6 2023 12:08:24,Agnieszka,1
5ae9c,5ae9c_session1_listb_speeded_trial132_asparagus.wav,1,b,peeded,132,asparagus,992,correct,slightly cut off,Apr  6 2023 12:08:33,Agnieszka,1
5ae9c,5ae9c_session1_listb_speeded_trial133_pirate.wav,1,b,peeded,133,pirate,1049,correct,NA,Apr  6 2023 12:08:42,Agnieszka,1
5ae9c,5ae9c_session1_listb_speeded_trial134_guitar.wav,1,b,peeded,134,guitar,906,correct,NA,Apr  6 2023 12:08:49,Agnieszka,1
5ae9c,5ae9c_session1_listb_speeded_trial135_ambulance.wav,1,b,peeded,135,ambulance,1006,correct,NA,Apr  6 2023 12:08:54,Agnieszka,1
5ae9c,5ae9c_session1_listb_speeded_trial136_man.wav,1,b,peeded,136,man,1011,correct,NA,Apr  6 2023 12:09:00,Agnieszka,1
5ae9c,5ae9c_session1_listb_speeded_trial137_bedroom.wav,1,b,peeded,137,bedroom,1028,correct,NA,Apr  6 2023 12:09:05,Agnieszka,1
5ae9c,5ae9c_session1_listb_speeded_trial138_telephone.wav,1,b,peeded,138,telephone,1124,correct,slightly cut off,Apr  6 2023 12:09:14,Agnieszka,1
5ae9c,5ae9c_session1_listb_speeded_trial139_vein.wav,1,b,peeded,139,vein,1044,correct,NA,Apr  6 2023 12:09:21,Agnieszka,1
5ae9c,5ae9c_session1_listb_speeded_trial140_beard.wav,1,b,peeded,140,beard,884,correct,NA,Apr  6 2023 12:09:27,Agnieszka,1
5ae9c,5ae9c_session1_listb_speeded_trial141_moustache.wav,1,b,peeded,141,moustache,852,correct,NA,Apr  6 2023 12:09:33,Agnieszka,1
5ae9c,5ae9c_session1_listb_speeded_trial142_cloud.wav,1,b,peeded,142,cloud,1307,correct,slightly cut off,Apr  6 2023 12:09:45,Agnieszka,1
5ae9c,5ae9c_session1_listb_speeded_trial143_broccoli.wav,1,b,peeded,143,broccoli,982,correct,NA,Apr  6 2023 12:09:51,Agnieszka,1
5ae9c,5ae9c_session1_listb_speeded_trial144_bat.wav,1,b,peeded,144,bat,953,correct,NA,Apr  6 2023 12:09:57,Agnieszka,1
5ae9c,5ae9c_session1_listb_speeded_trial145_scarecrow.wav,1,b,peeded,145,scarecrow,898,correct,NA,Apr  6 2023 12:10:13,Agnieszka,1
5ae9c,5ae9c_session1_listb_speeded_trial146_penguin.wav,1,b,peeded,146,penguin,844,correct,NA,Apr  6 2023 12:10:22,Agnieszka,1
5ae9c,5ae9c_session1_listb_speeded_trial147_broom.wav,1,b,peeded,147,broom,857,correct,NA,Apr  6 2023 12:10:33,Agnieszka,1
5ae9c,5ae9c_session1_listb_speeded_trial148_farm.wav,1,b,peeded,148,farm,1221,correct,,Apr  6 2023 12:10:41,Agnieszka,1
5ae9c,5ae9c_session1_listb_speeded_trial149_cage.wav,1,b,peeded,149,cage,881,correct,NA,Apr  6 2023 12:10:50,Agnieszka,1
5ae9c,5ae9c_session1_listb_speeded_trial150_belt.wav,1,b,peeded,150,belt,930,correct,NA,Apr  6 2023 12:10:55,Agnieszka,1
