Participant_ID,File_Name,Session,List,Type_Trial,Trial_Nbr,Target,RT,Response_Trial,Comment,Date_Correction,Assessor_Name,Processed
5f522,5f522_session2_listb_naming_trial001_scarf.wav,2,b,naming,1,scarf,794,correct,NA,Feb 24 2023 16:32:24,Agnieszka,1
5f522,5f522_session2_listb_naming_trial002_parrot.wav,2,b,naming,2,parrot,762,correct,NA,Feb 24 2023 16:32:31,Agnieszka,1
5f522,5f522_session2_listb_naming_trial003_ambulance.wav,2,b,naming,3,ambulance,705,correct,NA,Feb 24 2023 16:32:41,Agnieszka,1
5f522,5f522_session2_listb_naming_trial004_cone.wav,2,b,naming,4,cone,750,correct,NA,Feb 24 2023 16:32:52,Agnieszka,1
5f522,5f522_session2_listb_naming_trial005_roof.wav,2,b,naming,5,roof,842,correct,NA,Feb 24 2023 16:33:00,Agnieszka,1
5f522,5f522_session2_listb_naming_trial006_ankle.wav,2,b,naming,6,ankle,1145,correct,NA,Feb 24 2023 16:33:08,Agnieszka,1
5f522,5f522_session2_listb_naming_trial007_camera.wav,2,b,naming,7,camera,852,correct,NA,Feb 24 2023 16:33:23,Agnieszka,1
5f522,5f522_session2_listb_naming_trial008_belt.wav,2,b,naming,8,belt,753,correct,NA,Feb 24 2023 16:33:33,Agnieszka,1
5f522,5f522_session2_listb_naming_trial009_cactus.wav,2,b,naming,9,cactus,785,correct,NA,Feb 24 2023 16:33:42,Agnieszka,1
5f522,5f522_session2_listb_naming_trial010_pumpkin.wav,2,b,naming,10,pumpkin,794,correct,NA,Feb 24 2023 16:34:01,Agnieszka,1
5f522,5f522_session2_listb_naming_trial011_girl.wav,2,b,naming,11,girl,708,correct,NA,Feb 24 2023 16:34:10,Agnieszka,1
5f522,5f522_session2_listb_naming_trial012_dentist.wav,2,b,naming,12,dentist,858,correct,NA,Feb 24 2023 16:34:18,Agnieszka,1
5f522,5f522_session2_listb_naming_trial013_fruit.wav,2,b,naming,13,fruit,801,correct,NA,Feb 24 2023 16:34:28,Agnieszka,1
5f522,5f522_session2_listb_naming_trial014_wallet.wav,2,b,naming,14,wallet,766,correct,NA,Feb 24 2023 16:34:35,Agnieszka,1
5f522,5f522_session2_listb_naming_trial015_television.wav,2,b,naming,15,television,871,correct,NA,Feb 24 2023 16:34:45,Agnieszka,1
5f522,5f522_session2_listb_naming_trial016_pizza.wav,2,b,naming,16,pizza,985,correct,NA,Feb 24 2023 16:34:52,Agnieszka,1
5f522,5f522_session2_listb_naming_trial017_microphone.wav,2,b,naming,17,microphone,756,correct,NA,Feb 24 2023 16:35:05,Agnieszka,1
5f522,5f522_session2_listb_naming_trial018_chair.wav,2,b,naming,18,chair,906,correct,NA,Feb 24 2023 16:35:12,Agnieszka,1
5f522,5f522_session2_listb_naming_trial019_door.wav,2,b,naming,19,door,1020,correct,NA,Feb 24 2023 16:35:21,Agnieszka,1
5f522,5f522_session2_listb_naming_trial020_beard.wav,2,b,naming,20,beard,1610,correct,NA,Feb 24 2023 16:35:34,Agnieszka,1
5f522,5f522_session2_listb_naming_trial021_cage.wav,2,b,naming,21,cage,826,correct,NA,Feb 24 2023 16:38:19,Agnieszka,1
5f522,5f522_session2_listb_naming_trial022_condom.wav,2,b,naming,22,condom,880,correct,NA,Feb 24 2023 16:38:27,Agnieszka,1
5f522,5f522_session2_listb_naming_trial023_chain.wav,2,b,naming,23,chain,747,correct,NA,Feb 24 2023 16:38:36,Agnieszka,1
5f522,5f522_session2_listb_naming_trial024_caravan.wav,2,b,naming,24,caravan,1027,correct,NA,Feb 24 2023 16:38:43,Agnieszka,1
5f522,5f522_session2_listb_naming_trial025_parachute.wav,2,b,naming,25,parachute,1113,correct,NA,Feb 24 2023 16:38:50,Agnieszka,1
5f522,5f522_session2_listb_naming_trial026_shadow.wav,2,b,naming,26,shadow,1046,correct,NA,Feb 24 2023 16:38:58,Agnieszka,1
5f522,5f522_session2_listb_naming_trial027_bin.wav,2,b,naming,27,bin,1033,correct,NA,Feb 24 2023 16:39:06,Agnieszka,1
5f522,5f522_session2_listb_naming_trial028_maze.wav,2,b,naming,28,maze,893,correct,NA,Feb 24 2023 16:39:13,Agnieszka,1
5f522,5f522_session2_listb_naming_trial029_apron.wav,2,b,naming,29,apron,1068,correct,NA,Feb 24 2023 16:39:21,Agnieszka,1
5f522,5f522_session2_listb_naming_trial030_lemon.wav,2,b,naming,30,lemon,836,correct,NA,Feb 24 2023 16:39:30,Agnieszka,1
5f522,5f522_session2_listb_naming_trial031_glass.wav,2,b,naming,31,glass,718,correct,NA,Feb 24 2023 16:39:41,Agnieszka,1
5f522,5f522_session2_listb_naming_trial032_dragon.wav,2,b,naming,32,dragon,836,correct,NA,Feb 24 2023 16:39:48,Agnieszka,1
5f522,5f522_session2_listb_naming_trial033_ring.wav,2,b,naming,33,ring,750,correct,NA,Feb 24 2023 16:39:55,Agnieszka,1
5f522,5f522_session2_listb_naming_trial034_sock.wav,2,b,naming,34,sock,1164,correct,NA,Feb 24 2023 16:40:02,Agnieszka,1
5f522,5f522_session2_listb_naming_trial035_asparagus.wav,2,b,naming,35,asparagus,1065,correct,'sparagus',Feb 24 2023 16:40:20,Agnieszka,1
5f522,5f522_session2_listb_naming_trial036_finger.wav,2,b,naming,36,finger,880,correct,NA,Feb 24 2023 16:40:27,Agnieszka,1
5f522,5f522_session2_listb_naming_trial037_man.wav,2,b,naming,37,man,769,correct,NA,Feb 24 2023 16:40:35,Agnieszka,1
5f522,5f522_session2_listb_naming_trial038_snail.wav,2,b,naming,38,snail,874,correct,NA,Feb 24 2023 16:40:52,Agnieszka,1
5f522,5f522_session2_listb_naming_trial039_giraffe.wav,2,b,naming,39,giraffe,963,correct,NA,Feb 24 2023 16:41:00,Agnieszka,1
5f522,5f522_session2_listb_naming_trial040_harp.wav,2,b,naming,40,harp,801,correct,NA,Feb 24 2023 16:41:16,Agnieszka,1
5f522,5f522_session2_listb_naming_trial041_cigarette.wav,2,b,naming,41,cigarette,864,correct,NA,Feb 24 2023 16:41:25,Agnieszka,1
5f522,5f522_session2_listb_naming_trial042_hedgehog.wav,2,b,naming,42,hedgehog,931,correct,NA,Feb 24 2023 16:41:36,Agnieszka,1
5f522,5f522_session2_listb_naming_trial043_gun.wav,2,b,naming,43,gun,1020,correct,NA,Feb 24 2023 16:41:43,Agnieszka,1
5f522,5f522_session2_listb_naming_trial044_earring.wav,2,b,naming,44,earring,928,correct,NA,Feb 24 2023 16:41:50,Agnieszka,1
5f522,5f522_session2_listb_naming_trial045_well.wav,2,b,naming,45,well,1017,correct,NA,Feb 24 2023 16:41:57,Agnieszka,1
5f522,5f522_session2_listb_naming_trial046_king.wav,2,b,naming,46,king,864,correct,NA,Feb 24 2023 16:42:05,Agnieszka,1
5f522,5f522_session2_listb_naming_trial047_keyboard.wav,2,b,naming,47,keyboard,1004,correct,NA,Feb 24 2023 16:42:16,Agnieszka,1
5f522,5f522_session2_listb_naming_trial048_tank.wav,2,b,naming,48,tank,839,correct,NA,Feb 24 2023 16:42:23,Agnieszka,1
5f522,5f522_session2_listb_naming_trial049_waiter.wav,2,b,naming,49,waiter,1097,correct,NA,Feb 24 2023 16:42:31,Agnieszka,1
5f522,5f522_session2_listb_naming_trial050_diamond.wav,2,b,naming,50,diamond,938,correct,NA,Feb 24 2023 16:42:41,Agnieszka,1
5f522,5f522_session2_listb_naming_trial051_baby.wav,2,b,naming,51,baby,885,correct,NA,Feb 24 2023 16:42:48,Agnieszka,1
5f522,5f522_session2_listb_naming_trial052_sheep.wav,2,b,naming,52,sheep,880,correct,NA,Feb 24 2023 16:43:00,Agnieszka,1
5f522,5f522_session2_listb_naming_trial053_dog.wav,2,b,naming,53,dog,995,correct,NA,Feb 24 2023 16:43:07,Agnieszka,1
5f522,5f522_session2_listb_naming_trial054_stapler.wav,2,b,naming,54,stapler,887,correct,NA,Feb 24 2023 16:43:14,Agnieszka,1
5f522,5f522_session2_listb_naming_trial055_watch.wav,2,b,naming,55,watch,906,correct,NA,Feb 24 2023 16:43:21,Agnieszka,1
5f522,5f522_session2_listb_naming_trial056_egg.wav,2,b,naming,56,egg,823,correct,NA,Feb 24 2023 16:43:29,Agnieszka,1
5f522,5f522_session2_listb_naming_trial057_knee.wav,2,b,naming,57,knee,1578,correct,NA,Feb 24 2023 16:43:37,Agnieszka,1
5f522,5f522_session2_listb_naming_trial058_crown.wav,2,b,naming,58,crown,-1,wrong_word,NA,Feb 24 2023 16:43:43,Agnieszka,1
5f522,5f522_session2_listb_naming_trial059_umbrella.wav,2,b,naming,59,umbrella,877,correct,NA,Feb 24 2023 16:43:54,Agnieszka,1
5f522,5f522_session2_listb_naming_trial060_glasses.wav,2,b,naming,60,glasses,969,correct,NA,Feb 24 2023 16:44:05,Agnieszka,1
5f522,5f522_session2_listb_naming_trial061_heart.wav,2,b,naming,61,heart,1234,correct,NA,Feb 24 2023 16:44:14,Agnieszka,1
5f522,5f522_session2_listb_naming_trial062_brain.wav,2,b,naming,62,brain,982,correct,NA,Feb 24 2023 16:44:23,Agnieszka,1
5f522,5f522_session2_listb_naming_trial063_swimming.wav,2,b,naming,63,swimming,941,correct,NA,Feb 24 2023 16:44:33,Agnieszka,1
5f522,5f522_session2_listb_naming_trial064_skull.wav,2,b,naming,64,skull,737,correct,NA,Feb 24 2023 16:44:44,Agnieszka,1
5f522,5f522_session2_listb_naming_trial065_devil.wav,2,b,naming,65,devil,1071,correct,NA,Feb 24 2023 16:44:51,Agnieszka,1
5f522,5f522_session2_listb_naming_trial066_frog.wav,2,b,naming,66,frog,804,correct,NA,Feb 24 2023 16:45:01,Agnieszka,1
5f522,5f522_session2_listb_naming_trial067_nurse.wav,2,b,naming,67,nurse,915,correct,NA,Feb 24 2023 16:45:09,Agnieszka,1
5f522,5f522_session2_listb_naming_trial068_jar.wav,2,b,naming,68,jar,829,correct,NA,Feb 24 2023 16:48:15,Agnieszka,1
5f522,5f522_session2_listb_naming_trial069_penguin.wav,2,b,naming,69,penguin,772,correct,NA,Feb 24 2023 16:48:22,Agnieszka,1
5f522,5f522_session2_listb_naming_trial070_pool.wav,2,b,naming,70,pool,995,correct,NA,Feb 24 2023 16:48:29,Agnieszka,1
5f522,5f522_session2_listb_naming_trial071_printer.wav,2,b,naming,71,printer,1224,correct,NA,Feb 24 2023 16:48:37,Agnieszka,1
5f522,5f522_session2_listb_naming_trial072_football.wav,2,b,naming,72,football,823,correct,NA,Feb 24 2023 16:48:55,Agnieszka,1
5f522,5f522_session2_listb_naming_trial073_hand.wav,2,b,naming,73,hand,832,correct,NA,Feb 24 2023 16:49:15,Agnieszka,1
5f522,5f522_session2_listb_naming_trial074_duck.wav,2,b,naming,74,duck,966,correct,NA,Feb 24 2023 16:49:22,Agnieszka,1
5f522,5f522_session2_listb_naming_trial075_button.wav,2,b,naming,75,button,883,correct,NA,Feb 24 2023 16:49:30,Agnieszka,1
5f522,5f522_session2_listb_naming_trial076_pilot.wav,2,b,naming,76,pilot,858,correct,NA,Feb 24 2023 16:49:42,Agnieszka,1
5f522,5f522_session2_listb_naming_trial077_dolphin.wav,2,b,naming,77,dolphin,868,correct,NA,Feb 24 2023 16:49:51,Agnieszka,1
5f522,5f522_session2_listb_naming_trial078_skateboard.wav,2,b,naming,78,skateboard,963,correct,NA,Feb 24 2023 16:49:59,Agnieszka,1
5f522,5f522_session2_listb_naming_trial079_torch.wav,2,b,naming,79,torch,868,correct,NA,Feb 24 2023 16:50:10,Agnieszka,1
5f522,5f522_session2_listb_naming_trial080_mirror.wav,2,b,naming,80,mirror,797,correct,NA,Feb 24 2023 16:50:21,Agnieszka,1
5f522,5f522_session2_listb_naming_trial081_cannon.wav,2,b,naming,81,cannon,906,correct,NA,Feb 24 2023 16:50:29,Agnieszka,1
5f522,5f522_session2_listb_naming_trial082_skeleton.wav,2,b,naming,82,skeleton,1100,correct,NA,Feb 24 2023 16:50:37,Agnieszka,1
5f522,5f522_session2_listb_naming_trial083_mask.wav,2,b,naming,83,mask,1734,correct,NA,Feb 24 2023 16:50:48,Agnieszka,1
5f522,5f522_session2_listb_naming_trial084_guitar.wav,2,b,naming,84,guitar,979,correct,NA,Feb 24 2023 16:51:01,Agnieszka,1
5f522,5f522_session2_listb_naming_trial085_vein.wav,2,b,naming,85,vein,966,correct,NA,Feb 24 2023 16:51:09,Agnieszka,1
5f522,5f522_session2_listb_naming_trial086_pirate.wav,2,b,naming,86,pirate,1030,correct,NA,Feb 24 2023 16:51:17,Agnieszka,1
5f522,5f522_session2_listb_naming_trial087_back.wav,2,b,naming,87,back,899,correct,NA,Feb 24 2023 16:51:26,Agnieszka,1
5f522,5f522_session2_listb_naming_trial088_broccoli.wav,2,b,naming,88,broccoli,976,correct,NA,Feb 24 2023 16:51:35,Agnieszka,1
5f522,5f522_session2_listb_naming_trial089_greenhouse.wav,2,b,naming,89,greenhouse,-1,wrong_word,NA,Feb 24 2023 16:51:41,Agnieszka,1
5f522,5f522_session2_listb_naming_trial090_hair.wav,2,b,naming,90,hair,1113,correct,NA,Feb 24 2023 16:51:55,Agnieszka,1
5f522,5f522_session2_listb_naming_trial091_car.wav,2,b,naming,91,car,845,correct,NA,Feb 24 2023 16:52:05,Agnieszka,1
5f522,5f522_session2_listb_naming_trial092_honey.wav,2,b,naming,92,honey,995,correct,NA,Feb 24 2023 16:52:15,Agnieszka,1
5f522,5f522_session2_listb_naming_trial093_cloud.wav,2,b,naming,93,cloud,1294,correct,NA,Feb 24 2023 16:52:30,Agnieszka,1
5f522,5f522_session2_listb_naming_trial094_coffin.wav,2,b,naming,94,coffin,797,correct,NA,Feb 24 2023 16:52:40,Agnieszka,1
5f522,5f522_session2_listb_naming_trial095_airport.wav,2,b,naming,95,airport,880,correct,NA,Feb 24 2023 16:52:49,Agnieszka,1
5f522,5f522_session2_listb_naming_trial096_leaf.wav,2,b,naming,96,leaf,1313,correct,NA,Feb 24 2023 16:52:58,Agnieszka,1
5f522,5f522_session2_listb_naming_trial097_telephone.wav,2,b,naming,97,telephone,-1,wrong_word,NA,Feb 24 2023 16:53:06,Agnieszka,1
5f522,5f522_session2_listb_naming_trial098_coconut.wav,2,b,naming,98,coconut,893,correct,NA,Feb 24 2023 16:53:14,Agnieszka,1
5f522,5f522_session2_listb_naming_trial099_banana.wav,2,b,naming,99,banana,778,correct,NA,Feb 24 2023 16:53:26,Agnieszka,1
5f522,5f522_session2_listb_naming_trial100_dinosaur.wav,2,b,naming,100,dinosaur,931,correct,NA,Feb 24 2023 16:53:33,Agnieszka,1
5f522,5f522_session2_listb_naming_trial101_fan.wav,2,b,naming,101,fan,743,correct,NA,Feb 24 2023 16:53:41,Agnieszka,1
5f522,5f522_session2_listb_naming_trial102_coffee.wav,2,b,naming,102,coffee,855,correct,NA,Feb 24 2023 16:54:18,Agnieszka,1
5f522,5f522_session2_listb_naming_trial103_shirt.wav,2,b,naming,103,shirt,864,correct,NA,Feb 24 2023 16:54:24,Agnieszka,1
5f522,5f522_session2_listb_naming_trial104_bible.wav,2,b,naming,104,bible,1040,correct,NA,Feb 24 2023 16:54:31,Agnieszka,1
5f522,5f522_session2_listb_naming_trial105_bedroom.wav,2,b,naming,105,bedroom,1017,correct,NA,Feb 24 2023 16:54:38,Agnieszka,1
5f522,5f522_session2_listb_naming_trial106_spoon.wav,2,b,naming,106,spoon,782,correct,NA,Feb 24 2023 16:54:45,Agnieszka,1
5f522,5f522_session2_listb_naming_trial107_burger.wav,2,b,naming,107,burger,1081,correct,NA,Feb 24 2023 16:54:53,Agnieszka,1
5f522,5f522_session2_listb_naming_trial108_needle.wav,2,b,naming,108,needle,1169,correct,NA,Feb 24 2023 16:55:03,Agnieszka,1
5f522,5f522_session2_listb_naming_trial109_moustache.wav,2,b,naming,109,moustache,954,correct,NA,Feb 24 2023 16:55:11,Agnieszka,1
5f522,5f522_session2_listb_naming_trial110_calculator.wav,2,b,naming,110,calculator,778,correct,NA,Feb 24 2023 16:55:21,Agnieszka,1
5f522,5f522_session2_listb_naming_trial111_boomerang.wav,2,b,naming,111,boomerang,1052,correct,NA,Feb 24 2023 16:55:30,Agnieszka,1
5f522,5f522_session2_listb_naming_trial112_nose.wav,2,b,naming,112,nose,813,correct,NA,Feb 24 2023 16:55:39,Agnieszka,1
5f522,5f522_session2_listb_naming_trial113_face.wav,2,b,naming,113,face,1043,correct,NA,Feb 24 2023 16:55:53,Agnieszka,1
5f522,5f522_session2_listb_naming_trial114_lab.wav,2,b,naming,114,lab,1269,correct,NA,Feb 24 2023 16:56:05,Agnieszka,1
5f522,5f522_session2_listb_naming_trial115_volcano.wav,2,b,naming,115,volcano,1024,correct,NA,Feb 24 2023 16:56:13,Agnieszka,1
5f522,5f522_session2_listb_naming_trial116_witch.wav,2,b,naming,116,witch,893,correct,NA,Feb 24 2023 16:56:22,Agnieszka,1
5f522,5f522_session2_listb_naming_trial117_house.wav,2,b,naming,117,house,1055,correct,NA,Feb 24 2023 16:56:29,Agnieszka,1
5f522,5f522_session2_listb_naming_trial118_strawberry.wav,2,b,naming,118,strawberry,762,correct,NA,Feb 24 2023 16:56:38,Agnieszka,1
5f522,5f522_session2_listb_naming_trial119_bed.wav,2,b,naming,119,bed,1189,correct,NA,Feb 24 2023 16:56:47,Agnieszka,1
5f522,5f522_session2_listb_naming_trial120_road.wav,2,b,naming,120,road,852,correct,NA,Feb 24 2023 16:56:55,Agnieszka,1
5f522,5f522_session2_listb_naming_trial121_broom.wav,2,b,naming,121,broom,1033,correct,NA,Feb 24 2023 16:57:04,Agnieszka,1
5f522,5f522_session2_listb_naming_trial122_nun.wav,2,b,naming,122,nun,989,correct,NA,Feb 24 2023 16:57:11,Agnieszka,1
5f522,5f522_session2_listb_naming_trial123_trumpet.wav,2,b,naming,123,trumpet,947,correct,NA,Feb 24 2023 16:57:20,Agnieszka,1
5f522,5f522_session2_listb_naming_trial124_lizard.wav,2,b,naming,124,lizard,922,correct,NA,Feb 24 2023 16:57:29,Agnieszka,1
5f522,5f522_session2_listb_naming_trial125_iron.wav,2,b,naming,125,iron,998,correct,NA,Feb 24 2023 16:57:37,Agnieszka,1
5f522,5f522_session2_listb_naming_trial126_balloon.wav,2,b,naming,126,balloon,887,correct,NA,Feb 24 2023 16:57:45,Agnieszka,1
5f522,5f522_session2_listb_naming_trial127_handle.wav,2,b,naming,127,handle,1237,correct,NA,Feb 24 2023 16:57:56,Agnieszka,1
5f522,5f522_session2_listb_naming_trial128_farm.wav,2,b,naming,128,farm,985,correct,NA,Feb 24 2023 16:58:03,Agnieszka,1
5f522,5f522_session2_listb_naming_trial129_choir.wav,2,b,naming,129,choir,1046,correct,NA,Feb 24 2023 16:58:17,Agnieszka,1
5f522,5f522_session2_listb_naming_trial130_lion.wav,2,b,naming,130,lion,727,correct,NA,Feb 24 2023 16:58:43,Agnieszka,1
5f522,5f522_session2_listb_naming_trial131_shark.wav,2,b,naming,131,shark,1065,correct,NA,Feb 24 2023 16:58:50,Agnieszka,1
5f522,5f522_session2_listb_naming_trial132_butcher.wav,2,b,naming,132,butcher,982,correct,NA,Feb 24 2023 16:58:57,Agnieszka,1
5f522,5f522_session2_listb_naming_trial133_screwdriver.wav,2,b,naming,133,screwdriver,1049,correct,NA,Feb 24 2023 16:59:12,Agnieszka,1
5f522,5f522_session2_listb_naming_trial134_fist.wav,2,b,naming,134,fist,915,correct,NA,Feb 24 2023 16:59:21,Agnieszka,1
5f522,5f522_session2_listb_naming_trial135_elephant.wav,2,b,naming,135,elephant,762,correct,NA,Feb 24 2023 16:59:34,Agnieszka,1
5f522,5f522_session2_listb_naming_trial136_fire.wav,2,b,naming,136,fire,753,correct,NA,Feb 24 2023 16:59:41,Agnieszka,1
5f522,5f522_session2_listb_naming_trial137_bra.wav,2,b,naming,137,bra,1122,correct,NA,Feb 24 2023 16:59:48,Agnieszka,1
5f522,5f522_session2_listb_naming_trial138_feather.wav,2,b,naming,138,feather,1154,correct,NA,Feb 24 2023 16:59:58,Agnieszka,1
5f522,5f522_session2_listb_naming_trial139_foot.wav,2,b,naming,139,foot,1192,correct,NA,Feb 24 2023 17:00:07,Agnieszka,1
5f522,5f522_session2_listb_naming_trial140_desert.wav,2,b,naming,140,desert,1326,correct,NA,Feb 24 2023 17:00:16,Agnieszka,1
5f522,5f522_session2_listb_naming_trial141_spider.wav,2,b,naming,141,spider,1282,correct,NA,Feb 24 2023 17:00:23,Agnieszka,1
5f522,5f522_session2_listb_naming_trial142_eye.wav,2,b,naming,142,eye,871,correct,NA,Feb 24 2023 17:00:30,Agnieszka,1
5f522,5f522_session2_listb_naming_trial143_bat.wav,2,b,naming,143,bat,852,correct,NA,Feb 24 2023 17:00:37,Agnieszka,1
5f522,5f522_session2_listb_naming_trial144_calendar.wav,2,b,naming,144,calendar,785,correct,NA,Feb 24 2023 17:00:45,Agnieszka,1
5f522,5f522_session2_listb_naming_trial145_cowboy.wav,2,b,naming,145,cowboy,1129,correct,NA,Feb 24 2023 17:00:51,Agnieszka,1
5f522,5f522_session2_listb_naming_trial146_tooth.wav,2,b,naming,146,tooth,957,correct,NA,Feb 24 2023 17:01:00,Agnieszka,1
5f522,5f522_session2_listb_naming_trial147_scorpion.wav,2,b,naming,147,scorpion,992,correct,NA,Feb 24 2023 17:01:08,Agnieszka,1
5f522,5f522_session2_listb_naming_trial148_thermometer.wav,2,b,naming,148,thermometer,1463,correct,NA,Feb 24 2023 17:01:15,Agnieszka,1
5f522,5f522_session2_listb_naming_trial149_sink.wav,2,b,naming,149,sink,944,correct,NA,Feb 24 2023 17:01:22,Agnieszka,1
5f522,5f522_session2_listb_naming_trial150_scarecrow.wav,2,b,naming,150,scarecrow,-1,no_resp,NA,Feb 24 2023 17:01:29,Agnieszka,1
