Participant_ID,File_Name,Session,List,Type_Trial,Trial_Nbr,Target,RT,Response_Trial,Comment,Date_Correction,Assessor_Name,Processed
62ab2,62ab2_session2_listb_naming_trial001_banana.wav,2,b,naming,1,banana,732,correct,NA,Dec 01 2022 17:29:56,Shereen,1
62ab2,62ab2_session2_listb_naming_trial002_cowboy.wav,2,b,naming,2,cowboy,1153,correct,NA,Dec 01 2022 17:30:01,Shereen,1
62ab2,62ab2_session2_listb_naming_trial003_nurse.wav,2,b,naming,3,nurse,1536,correct,NA,Dec 01 2022 17:30:07,Shereen,1
62ab2,62ab2_session2_listb_naming_trial004_waiter.wav,2,b,naming,4,waiter,830,correct,NA,Dec 01 2022 17:30:13,Shereen,1
62ab2,62ab2_session2_listb_naming_trial005_handle.wav,2,b,naming,5,handle,982,correct,NA,Dec 01 2022 17:30:19,Shereen,1
62ab2,62ab2_session2_listb_naming_trial006_lab.wav,2,b,naming,6,lab,-1,wrong_word,NA,Dec 01 2022 17:30:29,Shereen,1
62ab2,62ab2_session2_listb_naming_trial007_dentist.wav,2,b,naming,7,dentist,1001,correct,NA,Dec 01 2022 17:30:36,Shereen,1
62ab2,62ab2_session2_listb_naming_trial008_crown.wav,2,b,naming,8,crown,918,correct,NA,Dec 01 2022 17:30:42,Shereen,1
62ab2,62ab2_session2_listb_naming_trial009_apron.wav,2,b,naming,9,apron,894,correct,NA,Dec 01 2022 17:30:47,Shereen,1
62ab2,62ab2_session2_listb_naming_trial010_vein.wav,2,b,naming,10,vein,810,correct,NA,Dec 01 2022 17:30:53,Shereen,1
62ab2,62ab2_session2_listb_naming_trial011_ambulance.wav,2,b,naming,11,ambulance,727,correct,NA,Dec 01 2022 17:30:59,Shereen,1
62ab2,62ab2_session2_listb_naming_trial012_balloon.wav,2,b,naming,12,balloon,668,correct,NA,Dec 01 2022 17:31:04,Shereen,1
62ab2,62ab2_session2_listb_naming_trial013_ankle.wav,2,b,naming,13,ankle,781,correct,NA,Dec 01 2022 17:31:08,Shereen,1
62ab2,62ab2_session2_listb_naming_trial014_scarecrow.wav,2,b,naming,14,scarecrow,844,correct,NA,Dec 01 2022 17:31:13,Shereen,1
62ab2,62ab2_session2_listb_naming_trial015_scarf.wav,2,b,naming,15,scarf,928,correct,NA,Dec 01 2022 17:31:19,Shereen,1
62ab2,62ab2_session2_listb_naming_trial016_nose.wav,2,b,naming,16,nose,737,correct,NA,Dec 01 2022 17:31:23,Shereen,1
62ab2,62ab2_session2_listb_naming_trial017_asparagus.wav,2,b,naming,17,asparagus,781,correct,NA,Dec 01 2022 17:31:27,Shereen,1
62ab2,62ab2_session2_listb_naming_trial018_eye.wav,2,b,naming,18,eye,791,correct,NA,Dec 01 2022 17:31:34,Shereen,1
62ab2,62ab2_session2_listb_naming_trial019_fist.wav,2,b,naming,19,fist,712,correct,NA,Dec 01 2022 17:31:52,Shereen,1
62ab2,62ab2_session2_listb_naming_trial020_printer.wav,2,b,naming,20,printer,933,correct,NA,Dec 01 2022 17:31:58,Shereen,1
62ab2,62ab2_session2_listb_naming_trial021_chain.wav,2,b,naming,21,chain,756,correct,NA,Dec 01 2022 17:32:03,Shereen,1
62ab2,62ab2_session2_listb_naming_trial022_dinosaur.wav,2,b,naming,22,dinosaur,933,correct,NA,Dec 01 2022 17:32:07,Shereen,1
62ab2,62ab2_session2_listb_naming_trial023_swimming.wav,2,b,naming,23,swimming,-1,wrong_word,NA,Dec 01 2022 17:32:15,Shereen,1
62ab2,62ab2_session2_listb_naming_trial024_calendar.wav,2,b,naming,24,calendar,825,correct,NA,Dec 01 2022 17:32:21,Shereen,1
62ab2,62ab2_session2_listb_naming_trial025_desert.wav,2,b,naming,25,desert,1001,correct,NA,Dec 01 2022 17:32:25,Shereen,1
62ab2,62ab2_session2_listb_naming_trial026_hand.wav,2,b,naming,26,hand,844,correct,NA,Dec 01 2022 17:32:29,Shereen,1
62ab2,62ab2_session2_listb_naming_trial027_girl.wav,2,b,naming,27,girl,864,correct,NA,Dec 01 2022 17:32:34,Shereen,1
62ab2,62ab2_session2_listb_naming_trial028_parachute.wav,2,b,naming,28,parachute,-1,no_resp,NA,Dec 01 2022 17:32:38,Shereen,1
62ab2,62ab2_session2_listb_naming_trial029_thermometer.wav,2,b,naming,29,thermometer,1045,correct,NA,Dec 01 2022 17:32:45,Shereen,1
62ab2,62ab2_session2_listb_naming_trial030_pumpkin.wav,2,b,naming,30,pumpkin,727,correct,NA,Dec 01 2022 17:32:51,Shereen,1
62ab2,62ab2_session2_listb_naming_trial031_cigarette.wav,2,b,naming,31,cigarette,693,correct,NA,Dec 01 2022 17:32:57,Shereen,1
62ab2,62ab2_session2_listb_naming_trial032_cactus.wav,2,b,naming,32,cactus,727,correct,NA,Dec 01 2022 17:33:03,Shereen,1
62ab2,62ab2_session2_listb_naming_trial033_frog.wav,2,b,naming,33,frog,639,correct,NA,Dec 01 2022 17:33:10,Shereen,1
62ab2,62ab2_session2_listb_naming_trial034_skateboard.wav,2,b,naming,34,skateboard,597,correct,NA,Dec 01 2022 17:33:18,Shereen,1
62ab2,62ab2_session2_listb_naming_trial035_fan.wav,2,b,naming,35,fan,835,correct,NA,Dec 01 2022 17:33:25,Shereen,1
62ab2,62ab2_session2_listb_naming_trial036_foot.wav,2,b,naming,36,foot,693,correct,NA,Dec 01 2022 17:33:35,Shereen,1
62ab2,62ab2_session2_listb_naming_trial037_glasses.wav,2,b,naming,37,glasses,799,correct,NA,Dec 01 2022 17:33:44,Shereen,1
62ab2,62ab2_session2_listb_naming_trial038_spider.wav,2,b,naming,38,spider,634,correct,NA,Dec 01 2022 17:33:49,Shereen,1
62ab2,62ab2_session2_listb_naming_trial039_dragon.wav,2,b,naming,39,dragon,-1,disfluency,NA,Dec 01 2022 17:34:07,Shereen,1
62ab2,62ab2_session2_listb_naming_trial040_scorpion.wav,2,b,naming,40,scorpion,1590,correct,NA,Dec 01 2022 17:34:15,Shereen,1
62ab2,62ab2_session2_listb_naming_trial041_well.wav,2,b,naming,41,well,884,correct,NA,Dec 01 2022 17:34:19,Shereen,1
62ab2,62ab2_session2_listb_naming_trial042_ring.wav,2,b,naming,42,ring,835,correct,NA,Dec 01 2022 17:34:27,Shereen,1
62ab2,62ab2_session2_listb_naming_trial043_face.wav,2,b,naming,43,face,-1,disfluency,NA,Dec 01 2022 17:34:38,Shereen,1
62ab2,62ab2_session2_listb_naming_trial044_mirror.wav,2,b,naming,44,mirror,933,correct,NA,Dec 01 2022 17:34:41,Shereen,1
62ab2,62ab2_session2_listb_naming_trial045_man.wav,2,b,naming,45,man,884,correct,NA,Dec 01 2022 17:34:46,Shereen,1
62ab2,62ab2_session2_listb_naming_trial046_caravan.wav,2,b,naming,46,caravan,815,correct,NA,Dec 01 2022 17:34:56,Shereen,1
62ab2,62ab2_session2_listb_naming_trial047_bat.wav,2,b,naming,47,bat,894,correct,NA,Dec 01 2022 17:35:01,Shereen,1
62ab2,62ab2_session2_listb_naming_trial048_finger.wav,2,b,naming,48,finger,727,correct,NA,Dec 01 2022 17:35:06,Shereen,1
62ab2,62ab2_session2_listb_naming_trial049_witch.wav,2,b,naming,49,witch,1134,correct,NA,Dec 01 2022 17:35:11,Shereen,1
62ab2,62ab2_session2_listb_naming_trial050_honey.wav,2,b,naming,50,honey,869,correct,NA,Dec 01 2022 17:35:17,Shereen,1
62ab2,62ab2_session2_listb_naming_trial051_television.wav,2,b,naming,51,television,1163,correct,NA,Dec 01 2022 17:35:22,Shereen,1
62ab2,62ab2_session2_listb_naming_trial052_pirate.wav,2,b,naming,52,pirate,1639,correct,NA,Dec 01 2022 17:35:27,Shereen,1
62ab2,62ab2_session2_listb_naming_trial053_earring.wav,2,b,naming,53,earring,1413,correct,NA,Dec 01 2022 17:35:31,Shereen,1
62ab2,62ab2_session2_listb_naming_trial054_hair.wav,2,b,naming,54,hair,1045,correct,NA,Dec 01 2022 17:35:35,Shereen,1
62ab2,62ab2_session2_listb_naming_trial055_cone.wav,2,b,naming,55,cone,1055,correct,NA,Dec 01 2022 17:35:46,Shereen,1
62ab2,62ab2_session2_listb_naming_trial056_back.wav,2,b,naming,56,back,884,correct,NA,Dec 01 2022 17:35:50,Shereen,1
62ab2,62ab2_session2_listb_naming_trial057_skull.wav,2,b,naming,57,skull,-1,wrong_word,NA,Dec 01 2022 17:35:58,Shereen,1
62ab2,62ab2_session2_listb_naming_trial058_sink.wav,2,b,naming,58,sink,766,correct,NA,Dec 01 2022 17:36:03,Shereen,1
62ab2,62ab2_session2_listb_naming_trial059_egg.wav,2,b,naming,59,egg,1060,correct,NA,Dec 01 2022 17:36:07,Shereen,1
62ab2,62ab2_session2_listb_naming_trial060_pizza.wav,2,b,naming,60,pizza,683,correct,NA,Dec 01 2022 17:36:12,Shereen,1
62ab2,62ab2_session2_listb_naming_trial061_wallet.wav,2,b,naming,61,wallet,756,correct,NA,Dec 01 2022 17:36:17,Shereen,1
62ab2,62ab2_session2_listb_naming_trial062_knee.wav,2,b,naming,62,knee,977,correct,NA,Dec 01 2022 17:36:21,Shereen,1
62ab2,62ab2_session2_listb_naming_trial063_camera.wav,2,b,naming,63,camera,1104,correct,NA,Dec 01 2022 17:36:26,Shereen,1
62ab2,62ab2_session2_listb_naming_trial064_sheep.wav,2,b,naming,64,sheep,717,correct,NA,Dec 01 2022 17:36:32,Shereen,1
62ab2,62ab2_session2_listb_naming_trial065_iron.wav,2,b,naming,65,iron,1109,correct,NA,Dec 01 2022 17:36:43,Shereen,1
62ab2,62ab2_session2_listb_naming_trial066_strawberry.wav,2,b,naming,66,strawberry,648,correct,NA,Dec 01 2022 17:36:49,Shereen,1
62ab2,62ab2_session2_listb_naming_trial067_farm.wav,2,b,naming,67,farm,-1,disfluency,NA,Dec 01 2022 17:36:54,Shereen,1
62ab2,62ab2_session2_listb_naming_trial068_shirt.wav,2,b,naming,68,shirt,1031,correct,NA,Dec 01 2022 17:36:59,Shereen,1
62ab2,62ab2_session2_listb_naming_trial069_bedroom.wav,2,b,naming,69,bedroom,957,correct,NA,Dec 01 2022 17:37:03,Shereen,1
62ab2,62ab2_session2_listb_naming_trial070_jar.wav,2,b,naming,70,jar,844,correct,NA,Dec 01 2022 17:37:08,Shereen,1
62ab2,62ab2_session2_listb_naming_trial071_needle.wav,2,b,naming,71,needle,1173,correct,NA,Dec 01 2022 17:37:14,Shereen,1
62ab2,62ab2_session2_listb_naming_trial072_glass.wav,2,b,naming,72,glass,913,correct,NA,Dec 01 2022 17:37:31,Shereen,1
62ab2,62ab2_session2_listb_naming_trial073_beard.wav,2,b,naming,73,beard,1070,correct,NA,Dec 01 2022 17:37:35,Shereen,1
62ab2,62ab2_session2_listb_naming_trial074_gun.wav,2,b,naming,74,gun,810,correct,NA,Dec 01 2022 17:37:40,Shereen,1
62ab2,62ab2_session2_listb_naming_trial075_screwdriver.wav,2,b,naming,75,screwdriver,879,correct,NA,Dec 01 2022 17:37:45,Shereen,1
62ab2,62ab2_session2_listb_naming_trial076_button.wav,2,b,naming,76,button,1107,correct,NA,Dec 01 2022 17:37:51,Shereen,1
62ab2,62ab2_session2_listb_naming_trial077_chair.wav,2,b,naming,77,chair,766,correct,NA,Dec 01 2022 17:37:58,Shereen,1
62ab2,62ab2_session2_listb_naming_trial078_volcano.wav,2,b,naming,78,volcano,871,correct,NA,Dec 01 2022 17:38:04,Shereen,1
62ab2,62ab2_session2_listb_naming_trial079_sock.wav,2,b,naming,79,sock,746,correct,NA,Dec 01 2022 17:38:10,Shereen,1
62ab2,62ab2_session2_listb_naming_trial080_penguin.wav,2,b,naming,80,penguin,742,correct,NA,Dec 01 2022 17:38:15,Shereen,1
62ab2,62ab2_session2_listb_naming_trial081_airport.wav,2,b,naming,81,airport,1354,correct,NA,Dec 01 2022 17:38:18,Shereen,1
62ab2,62ab2_session2_listb_naming_trial082_cage.wav,2,b,naming,82,cage,1369,correct,NA,Dec 01 2022 17:38:23,Shereen,1
62ab2,62ab2_session2_listb_naming_trial083_fruit.wav,2,b,naming,83,fruit,977,correct,NA,Dec 01 2022 17:38:39,Shereen,1
62ab2,62ab2_session2_listb_naming_trial084_guitar.wav,2,b,naming,84,guitar,809,correct,NA,Dec 01 2022 17:38:49,Shereen,1
62ab2,62ab2_session2_listb_naming_trial085_microphone.wav,2,b,naming,85,microphone,791,correct,NA,Dec 01 2022 17:39:10,Shereen,1
62ab2,62ab2_session2_listb_naming_trial086_pilot.wav,2,b,naming,86,pilot,1281,correct,NA,Dec 01 2022 17:39:20,Shereen,1
62ab2,62ab2_session2_listb_naming_trial087_coffee.wav,2,b,naming,87,coffee,884,correct,NA,Dec 01 2022 17:39:28,Shereen,1
62ab2,62ab2_session2_listb_naming_trial088_greenhouse.wav,2,b,naming,88,greenhouse,1374,correct,NA,Dec 01 2022 17:39:33,Shereen,1
62ab2,62ab2_session2_listb_naming_trial089_cannon.wav,2,b,naming,89,cannon,924,correct,NA,Dec 01 2022 17:39:38,Shereen,1
62ab2,62ab2_session2_listb_naming_trial090_choir.wav,2,b,naming,90,choir,952,correct,NA,Dec 01 2022 17:39:44,Shereen,1
62ab2,62ab2_session2_listb_naming_trial091_broom.wav,2,b,naming,91,broom,1060,correct,NA,Dec 01 2022 17:39:48,Shereen,1
62ab2,62ab2_session2_listb_naming_trial092_hedgehog.wav,2,b,naming,92,hedgehog,810,correct,NA,Dec 01 2022 17:39:55,Shereen,1
62ab2,62ab2_session2_listb_naming_trial093_tooth.wav,2,b,naming,93,tooth,805,correct,NA,Dec 01 2022 17:39:58,Shereen,1
62ab2,62ab2_session2_listb_naming_trial094_lion.wav,2,b,naming,94,lion,795,correct,NA,Dec 01 2022 17:40:02,Shereen,1
62ab2,62ab2_session2_listb_naming_trial095_lemon.wav,2,b,naming,95,lemon,770,correct,NA,Dec 01 2022 17:40:22,Shereen,1
62ab2,62ab2_session2_listb_naming_trial096_feather.wav,2,b,naming,96,feather,674,correct,NA,Dec 01 2022 17:40:31,Shereen,1
62ab2,62ab2_session2_listb_naming_trial097_brain.wav,2,b,naming,97,brain,864,correct,NA,Dec 01 2022 17:40:36,Shereen,1
62ab2,62ab2_session2_listb_naming_trial098_watch.wav,2,b,naming,98,watch,781,correct,NA,Dec 01 2022 17:40:45,Shereen,1
62ab2,62ab2_session2_listb_naming_trial099_shadow.wav,2,b,naming,99,shadow,1663,correct,NA,Dec 01 2022 17:40:50,Shereen,1
62ab2,62ab2_session2_listb_naming_trial100_lizard.wav,2,b,naming,100,lizard,835,correct,NA,Dec 01 2022 17:40:54,Shereen,1
62ab2,62ab2_session2_listb_naming_trial101_snail.wav,2,b,naming,101,snail,707,correct,NA,Dec 01 2022 17:41:01,Shereen,1
62ab2,62ab2_session2_listb_naming_trial102_roof.wav,2,b,naming,102,roof,928,correct,NA,Dec 01 2022 17:41:05,Shereen,1
62ab2,62ab2_session2_listb_naming_trial103_devil.wav,2,b,naming,103,devil,898,correct,NA,Dec 01 2022 17:41:10,Shereen,1
62ab2,62ab2_session2_listb_naming_trial104_burger.wav,2,b,naming,104,burger,722,correct,NA,Dec 01 2022 17:41:19,Shereen,1
62ab2,62ab2_session2_listb_naming_trial105_coffin.wav,2,b,naming,105,coffin,849,correct,NA,Dec 01 2022 17:41:23,Shereen,1
62ab2,62ab2_session2_listb_naming_trial106_road.wav,2,b,naming,106,road,820,correct,NA,Dec 01 2022 17:41:27,Shereen,1
62ab2,62ab2_session2_listb_naming_trial107_moustache.wav,2,b,naming,107,moustache,770,correct,NA,Dec 01 2022 17:41:33,Shereen,1
62ab2,62ab2_session2_listb_naming_trial108_boomerang.wav,2,b,naming,108,boomerang,884,correct,NA,Dec 01 2022 17:41:42,Shereen,1
62ab2,62ab2_session2_listb_naming_trial109_harp.wav,2,b,naming,109,harp,1144,correct,NA,Dec 01 2022 17:41:47,Shereen,1
62ab2,62ab2_session2_listb_naming_trial110_king.wav,2,b,naming,110,king,1260,correct,NA,Dec 01 2022 17:41:53,Shereen,1
62ab2,62ab2_session2_listb_naming_trial111_football.wav,2,b,naming,111,football,761,correct,NA,Dec 01 2022 17:41:58,Shereen,1
62ab2,62ab2_session2_listb_naming_trial112_stapler.wav,2,b,naming,112,stapler,830,correct,NA,Dec 01 2022 17:42:08,Shereen,1
62ab2,62ab2_session2_listb_naming_trial113_trumpet.wav,2,b,naming,113,trumpet,-1,wrong_word,NA,Dec 01 2022 17:42:16,Shereen,1
62ab2,62ab2_session2_listb_naming_trial114_elephant.wav,2,b,naming,114,elephant,923,correct,NA,Dec 01 2022 17:42:23,Shereen,1
62ab2,62ab2_session2_listb_naming_trial115_parrot.wav,2,b,naming,115,parrot,781,correct,NA,Dec 01 2022 17:42:28,Shereen,1
62ab2,62ab2_session2_listb_naming_trial116_condom.wav,2,b,naming,116,condom,957,correct,NA,Dec 01 2022 17:42:33,Shereen,1
62ab2,62ab2_session2_listb_naming_trial117_maze.wav,2,b,naming,117,maze,1006,correct,NA,Dec 01 2022 17:42:39,Shereen,1
62ab2,62ab2_session2_listb_naming_trial118_baby.wav,2,b,naming,118,baby,820,correct,NA,Dec 01 2022 17:42:43,Shereen,1
62ab2,62ab2_session2_listb_naming_trial119_shark.wav,2,b,naming,119,shark,1281,correct,NA,Dec 01 2022 17:42:50,Shereen,1
62ab2,62ab2_session2_listb_naming_trial120_leaf.wav,2,b,naming,120,leaf,844,correct,NA,Dec 01 2022 17:42:55,Shereen,1
62ab2,62ab2_session2_listb_naming_trial121_calculator.wav,2,b,naming,121,calculator,765,correct,NA,Dec 01 2022 17:43:00,Shereen,1
62ab2,62ab2_session2_listb_naming_trial122_house.wav,2,b,naming,122,house,697,correct,NA,Dec 01 2022 17:43:06,Shereen,1
62ab2,62ab2_session2_listb_naming_trial123_cloud.wav,2,b,naming,123,cloud,1045,correct,NA,Dec 01 2022 17:43:12,Shereen,1
62ab2,62ab2_session2_listb_naming_trial124_bra.wav,2,b,naming,124,bra,761,correct,NA,Dec 01 2022 17:43:16,Shereen,1
62ab2,62ab2_session2_listb_naming_trial125_giraffe.wav,2,b,naming,125,giraffe,737,correct,NA,Dec 01 2022 17:43:26,Shereen,1
62ab2,62ab2_session2_listb_naming_trial126_fire.wav,2,b,naming,126,fire,703,correct,NA,Dec 01 2022 17:43:32,Shereen,1
62ab2,62ab2_session2_listb_naming_trial127_telephone.wav,2,b,naming,127,telephone,697,correct,NA,Dec 01 2022 17:43:37,Shereen,1
62ab2,62ab2_session2_listb_naming_trial128_tank.wav,2,b,naming,128,tank,874,correct,NA,Dec 01 2022 17:43:41,Shereen,1
62ab2,62ab2_session2_listb_naming_trial129_broccoli.wav,2,b,naming,129,broccoli,869,correct,NA,Dec 01 2022 17:43:45,Shereen,1
62ab2,62ab2_session2_listb_naming_trial130_door.wav,2,b,naming,130,door,825,correct,NA,Dec 01 2022 17:43:51,Shereen,1
62ab2,62ab2_session2_listb_naming_trial131_bed.wav,2,b,naming,131,bed,842,correct,NA,Dec 01 2022 17:43:56,Shereen,1
62ab2,62ab2_session2_listb_naming_trial132_mask.wav,2,b,naming,132,mask,1134,correct,NA,Dec 01 2022 17:44:01,Shereen,1
62ab2,62ab2_session2_listb_naming_trial133_pool.wav,2,b,naming,133,pool,815,correct,NA,Dec 01 2022 17:44:07,Shereen,1
62ab2,62ab2_session2_listb_naming_trial134_bin.wav,2,b,naming,134,bin,1168,correct,NA,Dec 01 2022 17:44:12,Shereen,1
62ab2,62ab2_session2_listb_naming_trial135_butcher.wav,2,b,naming,135,butcher,1173,correct,NA,Dec 01 2022 17:44:18,Shereen,1
62ab2,62ab2_session2_listb_naming_trial136_coconut.wav,2,b,naming,136,coconut,1134,correct,NA,Dec 01 2022 17:44:23,Shereen,1
62ab2,62ab2_session2_listb_naming_trial137_diamond.wav,2,b,naming,137,diamond,742,correct,NA,Dec 01 2022 17:44:27,Shereen,1
62ab2,62ab2_session2_listb_naming_trial138_skeleton.wav,2,b,naming,138,skeleton,678,correct,NA,Dec 01 2022 17:44:38,Shereen,1
62ab2,62ab2_session2_listb_naming_trial139_keyboard.wav,2,b,naming,139,keyboard,737,correct,NA,Dec 01 2022 17:44:42,Shereen,1
62ab2,62ab2_session2_listb_naming_trial140_spoon.wav,2,b,naming,140,spoon,639,correct,NA,Dec 01 2022 17:44:48,Shereen,1
62ab2,62ab2_session2_listb_naming_trial141_duck.wav,2,b,naming,141,duck,800,correct,NA,Dec 01 2022 17:44:54,Shereen,1
62ab2,62ab2_session2_listb_naming_trial142_dolphin.wav,2,b,naming,142,dolphin,1458,correct,NA,Dec 01 2022 17:45:00,Shereen,1
62ab2,62ab2_session2_listb_naming_trial143_umbrella.wav,2,b,naming,143,umbrella,840,correct,NA,Dec 01 2022 17:45:06,Shereen,1
62ab2,62ab2_session2_listb_naming_trial144_nun.wav,2,b,naming,144,nun,-1,wrong_word,NA,Dec 01 2022 17:45:14,Shereen,1
62ab2,62ab2_session2_listb_naming_trial145_car.wav,2,b,naming,145,car,923,correct,NA,Dec 01 2022 17:45:21,Shereen,1
62ab2,62ab2_session2_listb_naming_trial146_torch.wav,2,b,naming,146,torch,884,correct,NA,Dec 01 2022 17:45:26,Shereen,1
62ab2,62ab2_session2_listb_naming_trial147_bible.wav,2,b,naming,147,bible,1036,correct,NA,Dec 01 2022 17:45:32,Shereen,1
62ab2,62ab2_session2_listb_naming_trial148_heart.wav,2,b,naming,148,heart,707,correct,NA,Dec 01 2022 17:45:38,Shereen,1
62ab2,62ab2_session2_listb_naming_trial149_dog.wav,2,b,naming,149,dog,766,correct,NA,Dec 01 2022 17:45:42,Shereen,1
62ab2,62ab2_session2_listb_naming_trial150_belt.wav,2,b,naming,150,belt,928,correct,NA,Dec 01 2022 17:45:49,Shereen,1
