Participant_ID,File_Name,Session,List,Type_Trial,Trial_Nbr,Target,RT,Response_Trial,Comment,Date_Correction,Assessor_Name,Processed
61573,61573_session2_listb_naming_trial001_cigarette.wav,2,b,naming,1,cigarette,702,correct,NA,Feb 28 2023 16:17:15,Agnieszka,1
61573,61573_session2_listb_naming_trial002_sock.wav,2,b,naming,2,sock,753,correct,NA,Feb 28 2023 16:17:23,Agnieszka,1
61573,61573_session2_listb_naming_trial003_sheep.wav,2,b,naming,3,sheep,772,correct,NA,Feb 28 2023 16:17:31,Agnieszka,1
61573,61573_session2_listb_naming_trial004_girl.wav,2,b,naming,4,girl,823,correct,NA,Feb 28 2023 16:17:38,Agnieszka,1
61573,61573_session2_listb_naming_trial005_leaf.wav,2,b,naming,5,leaf,804,correct,NA,Feb 28 2023 16:17:45,Agnieszka,1
61573,61573_session2_listb_naming_trial006_boomerang.wav,2,b,naming,6,boomerang,715,correct,NA,Feb 28 2023 16:18:00,Agnieszka,1
61573,61573_session2_listb_naming_trial007_farm.wav,2,b,naming,7,farm,855,correct,NA,Feb 28 2023 16:18:09,Agnieszka,1
61573,61573_session2_listb_naming_trial008_eye.wav,2,b,naming,8,eye,874,correct,NA,Feb 28 2023 16:18:17,Agnieszka,1
61573,61573_session2_listb_naming_trial009_pilot.wav,2,b,naming,9,pilot,807,correct,NA,Feb 28 2023 16:18:25,Agnieszka,1
61573,61573_session2_listb_naming_trial010_skull.wav,2,b,naming,10,skull,724,correct,NA,Feb 28 2023 16:18:32,Agnieszka,1
61573,61573_session2_listb_naming_trial011_ankle.wav,2,b,naming,11,ankle,791,correct,NA,Feb 28 2023 16:18:40,Agnieszka,1
61573,61573_session2_listb_naming_trial012_thermometer.wav,2,b,naming,12,thermometer,772,correct,NA,Feb 28 2023 16:18:51,Agnieszka,1
61573,61573_session2_listb_naming_trial013_broom.wav,2,b,naming,13,broom,915,correct,NA,Feb 28 2023 16:19:00,Agnieszka,1
61573,61573_session2_listb_naming_trial014_beard.wav,2,b,naming,14,beard,823,correct,NA,Feb 28 2023 16:19:08,Agnieszka,1
61573,61573_session2_listb_naming_trial015_spider.wav,2,b,naming,15,spider,691,correct,NA,Feb 28 2023 16:19:16,Agnieszka,1
61573,61573_session2_listb_naming_trial016_bat.wav,2,b,naming,16,bat,845,correct,NA,Feb 28 2023 16:19:24,Agnieszka,1
61573,61573_session2_listb_naming_trial017_button.wav,2,b,naming,17,button,866,correct,NA,Feb 28 2023 16:19:32,Agnieszka,1
61573,61573_session2_listb_naming_trial018_pumpkin.wav,2,b,naming,18,pumpkin,797,correct,NA,Feb 28 2023 16:19:40,Agnieszka,1
61573,61573_session2_listb_naming_trial019_calculator.wav,2,b,naming,19,calculator,696,correct,NA,Feb 28 2023 16:19:47,Agnieszka,1
61573,61573_session2_listb_naming_trial020_maze.wav,2,b,naming,20,maze,925,correct,NA,Feb 28 2023 16:19:55,Agnieszka,1
61573,61573_session2_listb_naming_trial021_earring.wav,2,b,naming,21,earring,887,correct,NA,Feb 28 2023 16:20:02,Agnieszka,1
61573,61573_session2_listb_naming_trial022_microphone.wav,2,b,naming,22,microphone,1022,correct,NA,Feb 28 2023 16:20:17,Agnieszka,1
61573,61573_session2_listb_naming_trial023_frog.wav,2,b,naming,23,frog,832,correct,NA,Feb 28 2023 16:20:25,Agnieszka,1
61573,61573_session2_listb_naming_trial024_airport.wav,2,b,naming,24,airport,985,correct,NA,Feb 28 2023 16:20:33,Agnieszka,1
61573,61573_session2_listb_naming_trial025_king.wav,2,b,naming,25,king,934,correct,NA,Feb 28 2023 16:20:42,Agnieszka,1
61573,61573_session2_listb_naming_trial026_fist.wav,2,b,naming,26,fist,973,correct,NA,Feb 28 2023 16:20:50,Agnieszka,1
61573,61573_session2_listb_naming_trial027_watch.wav,2,b,naming,27,watch,766,correct,NA,Feb 28 2023 16:21:00,Agnieszka,1
61573,61573_session2_listb_naming_trial028_stapler.wav,2,b,naming,28,stapler,696,correct,NA,Feb 28 2023 16:21:09,Agnieszka,1
61573,61573_session2_listb_naming_trial029_keyboard.wav,2,b,naming,29,keyboard,756,correct,NA,Feb 28 2023 16:21:17,Agnieszka,1
61573,61573_session2_listb_naming_trial030_condom.wav,2,b,naming,30,condom,874,correct,NA,Feb 28 2023 16:21:29,Agnieszka,1
61573,61573_session2_listb_naming_trial031_sink.wav,2,b,naming,31,sink,740,correct,NA,Feb 28 2023 16:21:37,Agnieszka,1
61573,61573_session2_listb_naming_trial032_feather.wav,2,b,naming,32,feather,960,correct,NA,Feb 28 2023 16:22:31,Agnieszka,1
61573,61573_session2_listb_naming_trial033_well.wav,2,b,naming,33,well,995,correct,NA,Feb 28 2023 16:22:38,Agnieszka,1
61573,61573_session2_listb_naming_trial034_chair.wav,2,b,naming,34,chair,734,correct,NA,Feb 28 2023 16:22:46,Agnieszka,1
61573,61573_session2_listb_naming_trial035_parachute.wav,2,b,naming,35,parachute,845,correct,NA,Feb 28 2023 16:22:56,Agnieszka,1
61573,61573_session2_listb_naming_trial036_belt.wav,2,b,naming,36,belt,1024,correct,NA,Feb 28 2023 16:23:03,Agnieszka,1
61573,61573_session2_listb_naming_trial037_brain.wav,2,b,naming,37,brain,891,correct,NA,Feb 28 2023 16:23:10,Agnieszka,1
61573,61573_session2_listb_naming_trial038_pirate.wav,2,b,naming,38,pirate,791,correct,NA,Feb 28 2023 16:23:23,Agnieszka,1
61573,61573_session2_listb_naming_trial039_scarf.wav,2,b,naming,39,scarf,866,correct,NA,Feb 28 2023 16:23:31,Agnieszka,1
61573,61573_session2_listb_naming_trial040_apron.wav,2,b,naming,40,apron,1151,correct,NA,Feb 28 2023 16:23:37,Agnieszka,1
61573,61573_session2_listb_naming_trial041_gun.wav,2,b,naming,41,gun,957,correct,NA,Feb 28 2023 16:23:49,Agnieszka,1
61573,61573_session2_listb_naming_trial042_dolphin.wav,2,b,naming,42,dolphin,866,correct,NA,Feb 28 2023 16:23:56,Agnieszka,1
61573,61573_session2_listb_naming_trial043_vein.wav,2,b,naming,43,vein,-1,wrong_word,NA,Feb 28 2023 16:24:06,Agnieszka,1
61573,61573_session2_listb_naming_trial044_shark.wav,2,b,naming,44,shark,896,correct,NA,Feb 28 2023 16:24:14,Agnieszka,1
61573,61573_session2_listb_naming_trial045_heart.wav,2,b,naming,45,heart,791,correct,NA,Feb 28 2023 16:24:27,Agnieszka,1
61573,61573_session2_listb_naming_trial046_fan.wav,2,b,naming,46,fan,797,correct,NA,Feb 28 2023 16:24:42,Agnieszka,1
61573,61573_session2_listb_naming_trial047_ambulance.wav,2,b,naming,47,ambulance,885,correct,NA,Feb 28 2023 16:24:53,Agnieszka,1
61573,61573_session2_listb_naming_trial048_iron.wav,2,b,naming,48,iron,864,correct,NA,Feb 28 2023 16:25:01,Agnieszka,1
61573,61573_session2_listb_naming_trial049_needle.wav,2,b,naming,49,needle,991,correct,NA,Feb 28 2023 16:25:09,Agnieszka,1
61573,61573_session2_listb_naming_trial050_screwdriver.wav,2,b,naming,50,screwdriver,855,correct,NA,Feb 28 2023 16:25:16,Agnieszka,1
61573,61573_session2_listb_naming_trial051_road.wav,2,b,naming,51,road,842,correct,NA,Feb 28 2023 16:25:23,Agnieszka,1
61573,61573_session2_listb_naming_trial052_coconut.wav,2,b,naming,52,coconut,979,correct,NA,Feb 28 2023 16:25:30,Agnieszka,1
61573,61573_session2_listb_naming_trial053_cone.wav,2,b,naming,53,cone,909,correct,NA,Feb 28 2023 16:25:37,Agnieszka,1
61573,61573_session2_listb_naming_trial054_duck.wav,2,b,naming,54,duck,1275,correct,NA,Feb 28 2023 16:25:43,Agnieszka,1
61573,61573_session2_listb_naming_trial055_scarecrow.wav,2,b,naming,55,scarecrow,903,correct,NA,Feb 28 2023 16:25:51,Agnieszka,1
61573,61573_session2_listb_naming_trial056_coffin.wav,2,b,naming,56,coffin,890,correct,NA,Feb 28 2023 16:25:59,Agnieszka,1
61573,61573_session2_listb_naming_trial057_guitar.wav,2,b,naming,57,guitar,918,correct,NA,Feb 28 2023 16:26:06,Agnieszka,1
61573,61573_session2_listb_naming_trial058_skeleton.wav,2,b,naming,58,skeleton,686,correct,NA,Feb 28 2023 16:26:13,Agnieszka,1
61573,61573_session2_listb_naming_trial059_bedroom.wav,2,b,naming,59,bedroom,1032,correct,NA,Feb 28 2023 16:26:20,Agnieszka,1
61573,61573_session2_listb_naming_trial060_dinosaur.wav,2,b,naming,60,dinosaur,1626,correct,NA,Feb 28 2023 16:26:27,Agnieszka,1
61573,61573_session2_listb_naming_trial061_honey.wav,2,b,naming,61,honey,960,correct,NA,Feb 28 2023 16:26:35,Agnieszka,1
61573,61573_session2_listb_naming_trial062_harp.wav,2,b,naming,62,harp,912,correct,NA,Feb 28 2023 16:26:43,Agnieszka,1
61573,61573_session2_listb_naming_trial063_dragon.wav,2,b,naming,63,dragon,903,correct,NA,Feb 28 2023 16:26:50,Agnieszka,1
61573,61573_session2_listb_naming_trial064_cage.wav,2,b,naming,64,cage,954,correct,NA,Feb 28 2023 16:26:57,Agnieszka,1
61573,61573_session2_listb_naming_trial065_trumpet.wav,2,b,naming,65,trumpet,1084,correct,NA,Feb 28 2023 16:27:04,Agnieszka,1
61573,61573_session2_listb_naming_trial066_knee.wav,2,b,naming,66,knee,-1,wrong_word,NA,Feb 28 2023 16:27:13,Agnieszka,1
61573,61573_session2_listb_naming_trial067_coffee.wav,2,b,naming,67,coffee,954,correct,NA,Feb 28 2023 16:27:21,Agnieszka,1
61573,61573_session2_listb_naming_trial068_egg.wav,2,b,naming,68,egg,855,correct,NA,Feb 28 2023 16:27:29,Agnieszka,1
61573,61573_session2_listb_naming_trial069_roof.wav,2,b,naming,69,roof,1106,correct,NA,Feb 28 2023 16:27:35,Agnieszka,1
61573,61573_session2_listb_naming_trial070_cactus.wav,2,b,naming,70,cactus,899,correct,NA,Feb 28 2023 16:27:43,Agnieszka,1
61573,61573_session2_listb_naming_trial071_printer.wav,2,b,naming,71,printer,1082,correct,NA,Feb 28 2023 16:27:50,Agnieszka,1
61573,61573_session2_listb_naming_trial072_mask.wav,2,b,naming,72,mask,858,correct,NA,Feb 28 2023 16:27:59,Agnieszka,1
61573,61573_session2_listb_naming_trial073_bin.wav,2,b,naming,73,bin,845,correct,NA,Feb 28 2023 16:28:08,Agnieszka,1
61573,61573_session2_listb_naming_trial074_penguin.wav,2,b,naming,74,penguin,738,correct,NA,Feb 28 2023 16:28:18,Agnieszka,1
61573,61573_session2_listb_naming_trial075_waiter.wav,2,b,naming,75,waiter,877,correct,NA,Feb 28 2023 16:28:28,Agnieszka,1
61573,61573_session2_listb_naming_trial076_dog.wav,2,b,naming,76,dog,885,correct,NA,Feb 28 2023 16:28:35,Agnieszka,1
61573,61573_session2_listb_naming_trial077_burger.wav,2,b,naming,77,burger,903,correct,NA,Feb 28 2023 16:28:42,Agnieszka,1
61573,61573_session2_listb_naming_trial078_asparagus.wav,2,b,naming,78,asparagus,928,correct,NA,Feb 28 2023 16:28:50,Agnieszka,1
61573,61573_session2_listb_naming_trial079_jar.wav,2,b,naming,79,jar,979,correct,NA,Feb 28 2023 16:28:57,Agnieszka,1
61573,61573_session2_listb_naming_trial080_hand.wav,2,b,naming,80,hand,848,correct,NA,Feb 28 2023 16:29:05,Agnieszka,1
61573,61573_session2_listb_naming_trial081_fire.wav,2,b,naming,81,fire,729,correct,NA,Feb 28 2023 16:29:15,Agnieszka,1
61573,61573_session2_listb_naming_trial082_volcano.wav,2,b,naming,82,volcano,963,correct,NA,Feb 28 2023 16:29:45,Agnieszka,1
61573,61573_session2_listb_naming_trial083_moustache.wav,2,b,naming,83,moustache,782,correct,NA,Feb 28 2023 16:29:52,Agnieszka,1
61573,61573_session2_listb_naming_trial084_football.wav,2,b,naming,84,football,1173,correct,NA,Feb 28 2023 16:30:02,Agnieszka,1
61573,61573_session2_listb_naming_trial085_shadow.wav,2,b,naming,85,shadow,896,correct,NA,Feb 28 2023 16:30:10,Agnieszka,1
61573,61573_session2_listb_naming_trial086_dentist.wav,2,b,naming,86,dentist,1272,correct,NA,Feb 28 2023 16:30:18,Agnieszka,1
61573,61573_session2_listb_naming_trial087_skateboard.wav,2,b,naming,87,skateboard,836,correct,NA,Feb 28 2023 16:30:30,Agnieszka,1
61573,61573_session2_listb_naming_trial088_mirror.wav,2,b,naming,88,mirror,1150,correct,NA,Feb 28 2023 16:30:38,Agnieszka,1
61573,61573_session2_listb_naming_trial089_hedgehog.wav,2,b,naming,89,hedgehog,858,correct,NA,Feb 28 2023 16:30:53,Agnieszka,1
61573,61573_session2_listb_naming_trial090_back.wav,2,b,naming,90,back,874,correct,NA,Feb 28 2023 16:31:00,Agnieszka,1
61573,61573_session2_listb_naming_trial091_lab.wav,2,b,naming,91,lab,1390,correct,NA,Feb 28 2023 16:31:09,Agnieszka,1
61573,61573_session2_listb_naming_trial092_pool.wav,2,b,naming,92,pool,-1,wrong_word,NA,Feb 28 2023 16:31:16,Agnieszka,1
61573,61573_session2_listb_naming_trial093_torch.wav,2,b,naming,93,torch,1029,correct,NA,Feb 28 2023 16:31:23,Agnieszka,1
61573,61573_session2_listb_naming_trial094_lion.wav,2,b,naming,94,lion,839,correct,NA,Feb 28 2023 16:31:30,Agnieszka,1
61573,61573_session2_listb_naming_trial095_baby.wav,2,b,naming,95,baby,835,correct,NA,Feb 28 2023 16:31:38,Agnieszka,1
61573,61573_session2_listb_naming_trial096_fruit.wav,2,b,naming,96,fruit,823,correct,NA,Feb 28 2023 16:31:45,Agnieszka,1
61573,61573_session2_listb_naming_trial097_witch.wav,2,b,naming,97,witch,938,correct,NA,Feb 28 2023 16:32:01,Agnieszka,1
61573,61573_session2_listb_naming_trial098_crown.wav,2,b,naming,98,crown,829,correct,NA,Feb 28 2023 16:32:09,Agnieszka,1
61573,61573_session2_listb_naming_trial099_banana.wav,2,b,naming,99,banana,842,correct,NA,Feb 28 2023 16:32:18,Agnieszka,1
61573,61573_session2_listb_naming_trial100_foot.wav,2,b,naming,100,foot,819,correct,NA,Feb 28 2023 16:32:30,Agnieszka,1
61573,61573_session2_listb_naming_trial101_bed.wav,2,b,naming,101,bed,925,correct,NA,Feb 28 2023 16:32:40,Agnieszka,1
61573,61573_session2_listb_naming_trial102_diamond.wav,2,b,naming,102,diamond,925,correct,NA,Feb 28 2023 16:32:48,Agnieszka,1
61573,61573_session2_listb_naming_trial103_shirt.wav,2,b,naming,103,shirt,852,correct,NA,Feb 28 2023 16:32:56,Agnieszka,1
61573,61573_session2_listb_naming_trial104_cannon.wav,2,b,naming,104,cannon,861,correct,NA,Feb 28 2023 16:33:03,Agnieszka,1
61573,61573_session2_listb_naming_trial105_lizard.wav,2,b,naming,105,lizard,966,correct,NA,Feb 28 2023 16:33:12,Agnieszka,1
61573,61573_session2_listb_naming_trial106_butcher.wav,2,b,naming,106,butcher,1196,correct,NA,Feb 28 2023 16:33:19,Agnieszka,1
61573,61573_session2_listb_naming_trial107_cloud.wav,2,b,naming,107,cloud,-1,no_resp,NA,Feb 28 2023 16:33:25,Agnieszka,1
61573,61573_session2_listb_naming_trial108_spoon.wav,2,b,naming,108,spoon,938,correct,NA,Feb 28 2023 16:33:33,Agnieszka,1
61573,61573_session2_listb_naming_trial109_caravan.wav,2,b,naming,109,caravan,1323,correct,NA,Feb 28 2023 16:33:40,Agnieszka,1
61573,61573_session2_listb_naming_trial110_car.wav,2,b,naming,110,car,1107,correct,NA,Feb 28 2023 16:33:48,Agnieszka,1
61573,61573_session2_listb_naming_trial111_telephone.wav,2,b,naming,111,telephone,-1,wrong_word,NA,Feb 28 2023 16:33:55,Agnieszka,1
61573,61573_session2_listb_naming_trial112_camera.wav,2,b,naming,112,camera,1027,correct,NA,Feb 28 2023 16:34:03,Agnieszka,1
61573,61573_session2_listb_naming_trial113_man.wav,2,b,naming,113,man,960,correct,NA,Feb 28 2023 16:34:10,Agnieszka,1
61573,61573_session2_listb_naming_trial114_elephant.wav,2,b,naming,114,elephant,1212,correct,NA,Feb 28 2023 16:34:17,Agnieszka,1
61573,61573_session2_listb_naming_trial115_lemon.wav,2,b,naming,115,lemon,1353,correct,NA,Feb 28 2023 16:34:23,Agnieszka,1
61573,61573_session2_listb_naming_trial116_calendar.wav,2,b,naming,116,calendar,1078,correct,NA,Feb 28 2023 16:34:31,Agnieszka,1
61573,61573_session2_listb_naming_trial117_swimming.wav,2,b,naming,117,swimming,-1,wrong_word,NA,Feb 28 2023 16:34:39,Agnieszka,1
61573,61573_session2_listb_naming_trial118_glass.wav,2,b,naming,118,glass,912,correct,NA,Feb 28 2023 16:34:46,Agnieszka,1
61573,61573_session2_listb_naming_trial119_door.wav,2,b,naming,119,door,864,correct,NA,Feb 28 2023 16:34:53,Agnieszka,1
61573,61573_session2_listb_naming_trial120_pizza.wav,2,b,naming,120,pizza,1066,correct,NA,Feb 28 2023 16:35:08,Agnieszka,1
61573,61573_session2_listb_naming_trial121_handle.wav,2,b,naming,121,handle,1269,correct,NA,Feb 28 2023 16:35:15,Agnieszka,1
61573,61573_session2_listb_naming_trial122_nurse.wav,2,b,naming,122,nurse,1450,correct,NA,Feb 28 2023 16:35:21,Agnieszka,1
61573,61573_session2_listb_naming_trial123_wallet.wav,2,b,naming,123,wallet,1001,correct,NA,Feb 28 2023 16:35:28,Agnieszka,1
61573,61573_session2_listb_naming_trial124_devil.wav,2,b,naming,124,devil,1046,correct,NA,Feb 28 2023 16:35:55,Agnieszka,1
61573,61573_session2_listb_naming_trial125_desert.wav,2,b,naming,125,desert,1138,correct,NA,Feb 28 2023 16:36:16,Agnieszka,1
61573,61573_session2_listb_naming_trial126_balloon.wav,2,b,naming,126,balloon,969,correct,NA,Feb 28 2023 16:36:25,Agnieszka,1
61573,61573_session2_listb_naming_trial127_finger.wav,2,b,naming,127,finger,897,correct,NA,Feb 28 2023 16:36:34,Agnieszka,1
61573,61573_session2_listb_naming_trial128_television.wav,2,b,naming,128,television,1345,correct,NA,Feb 28 2023 16:36:41,Agnieszka,1
61573,61573_session2_listb_naming_trial129_choir.wav,2,b,naming,129,choir,1317,correct,NA,Feb 28 2023 16:36:50,Agnieszka,1
61573,61573_session2_listb_naming_trial130_tank.wav,2,b,naming,130,tank,1138,correct,NA,Feb 28 2023 16:36:58,Agnieszka,1
61573,61573_session2_listb_naming_trial131_ring.wav,2,b,naming,131,ring,839,correct,NA,Feb 28 2023 16:37:07,Agnieszka,1
61573,61573_session2_listb_naming_trial132_scorpion.wav,2,b,naming,132,scorpion,1053,correct,NA,Feb 28 2023 16:37:14,Agnieszka,1
61573,61573_session2_listb_naming_trial133_cowboy.wav,2,b,naming,133,cowboy,1059,correct,NA,Feb 28 2023 16:37:23,Agnieszka,1
61573,61573_session2_listb_naming_trial134_glasses.wav,2,b,naming,134,glasses,845,correct,NA,Feb 28 2023 16:37:30,Agnieszka,1
61573,61573_session2_listb_naming_trial135_chain.wav,2,b,naming,135,chain,791,correct,NA,Feb 28 2023 16:37:38,Agnieszka,1
61573,61573_session2_listb_naming_trial136_face.wav,2,b,naming,136,face,871,correct,NA,Feb 28 2023 16:37:45,Agnieszka,1
61573,61573_session2_listb_naming_trial137_nun.wav,2,b,naming,137,nun,935,correct,NA,Feb 28 2023 16:37:53,Agnieszka,1
61573,61573_session2_listb_naming_trial138_tooth.wav,2,b,naming,138,tooth,976,correct,NA,Feb 28 2023 16:38:01,Agnieszka,1
61573,61573_session2_listb_naming_trial139_strawberry.wav,2,b,naming,139,strawberry,826,correct,NA,Feb 28 2023 16:38:08,Agnieszka,1
61573,61573_session2_listb_naming_trial140_greenhouse.wav,2,b,naming,140,greenhouse,890,correct,NA,Feb 28 2023 16:38:17,Agnieszka,1
61573,61573_session2_listb_naming_trial141_nose.wav,2,b,naming,141,nose,817,correct,NA,Feb 28 2023 16:38:25,Agnieszka,1
61573,61573_session2_listb_naming_trial142_house.wav,2,b,naming,142,house,829,correct,NA,Feb 28 2023 16:38:33,Agnieszka,1
61573,61573_session2_listb_naming_trial143_broccoli.wav,2,b,naming,143,broccoli,883,correct,NA,Feb 28 2023 16:38:40,Agnieszka,1
61573,61573_session2_listb_naming_trial144_parrot.wav,2,b,naming,144,parrot,954,correct,NA,Feb 28 2023 16:38:50,Agnieszka,1
61573,61573_session2_listb_naming_trial145_umbrella.wav,2,b,naming,145,umbrella,957,correct,NA,Feb 28 2023 16:38:57,Agnieszka,1
61573,61573_session2_listb_naming_trial146_bible.wav,2,b,naming,146,bible,934,correct,NA,Feb 28 2023 16:39:06,Agnieszka,1
61573,61573_session2_listb_naming_trial147_giraffe.wav,2,b,naming,147,giraffe,760,correct,NA,Feb 28 2023 16:39:13,Agnieszka,1
61573,61573_session2_listb_naming_trial148_hair.wav,2,b,naming,148,hair,906,correct,NA,Feb 28 2023 16:39:20,Agnieszka,1
61573,61573_session2_listb_naming_trial149_bra.wav,2,b,naming,149,bra,854,correct,NA,Feb 28 2023 16:39:28,Agnieszka,1
61573,61573_session2_listb_naming_trial150_snail.wav,2,b,naming,150,snail,877,correct,NA,Feb 28 2023 16:39:36,Agnieszka,1
