Participant_ID,File_Name,Session,List,Type_Trial,Trial_Nbr,Target,RT,Response_Trial,Comment,Date_Correction,Assessor_Name,Processed
61fa9,61fa9_session2_listb_naming_trial001_spider.wav,2,b,naming,1,spider,896,correct,NA,Mar  7 2023 02:04:28,Agnieszka,1
61fa9,61fa9_session2_listb_naming_trial002_vein.wav,2,b,naming,2,vein,842,correct,NA,Mar  7 2023 02:04:39,Agnieszka,1
61fa9,61fa9_session2_listb_naming_trial003_broom.wav,2,b,naming,3,broom,995,correct,NA,Mar  7 2023 02:04:48,Agnieszka,1
61fa9,61fa9_session2_listb_naming_trial004_butcher.wav,2,b,naming,4,butcher,880,correct,NA,Mar  7 2023 02:04:58,Agnieszka,1
61fa9,61fa9_session2_listb_naming_trial005_bin.wav,2,b,naming,5,bin,899,correct,NA,Mar  7 2023 02:05:09,Agnieszka,1
61fa9,61fa9_session2_listb_naming_trial006_lemon.wav,2,b,naming,6,lemon,903,correct,NA,Mar  7 2023 02:05:17,Agnieszka,1
61fa9,61fa9_session2_listb_naming_trial007_parrot.wav,2,b,naming,7,parrot,801,correct,NA,Mar  7 2023 02:05:31,Agnieszka,1
61fa9,61fa9_session2_listb_naming_trial008_desert.wav,2,b,naming,8,desert,1052,correct,NA,Mar  7 2023 02:05:44,Agnieszka,1
61fa9,61fa9_session2_listb_naming_trial009_sock.wav,2,b,naming,9,sock,708,correct,NA,Mar  7 2023 02:06:01,Agnieszka,1
61fa9,61fa9_session2_listb_naming_trial010_well.wav,2,b,naming,10,well,1374,correct,NA,Mar  7 2023 02:06:08,Agnieszka,1
61fa9,61fa9_session2_listb_naming_trial011_chair.wav,2,b,naming,11,chair,861,correct,NA,Mar  7 2023 02:06:21,Agnieszka,1
61fa9,61fa9_session2_listb_naming_trial012_banana.wav,2,b,naming,12,banana,1176,correct,NA,Mar  7 2023 02:06:31,Agnieszka,1
61fa9,61fa9_session2_listb_naming_trial013_choir.wav,2,b,naming,13,choir,1062,correct,NA,Mar  7 2023 02:06:40,Agnieszka,1
61fa9,61fa9_session2_listb_naming_trial014_thermometer.wav,2,b,naming,14,thermometer,1122,correct,NA,Mar  7 2023 02:06:51,Agnieszka,1
61fa9,61fa9_session2_listb_naming_trial015_beard.wav,2,b,naming,15,beard,1001,correct,NA,Mar  7 2023 02:07:01,Agnieszka,1
61fa9,61fa9_session2_listb_naming_trial016_dentist.wav,2,b,naming,16,dentist,1463,correct,NA,Mar  7 2023 02:07:10,Agnieszka,1
61fa9,61fa9_session2_listb_naming_trial017_screwdriver.wav,2,b,naming,17,screwdriver,1027,correct,NA,Mar  7 2023 02:07:21,Agnieszka,1
61fa9,61fa9_session2_listb_naming_trial018_maze.wav,2,b,naming,18,maze,947,correct,NA,Mar  7 2023 02:07:30,Agnieszka,1
61fa9,61fa9_session2_listb_naming_trial019_dog.wav,2,b,naming,19,dog,845,correct,NA,Mar  7 2023 02:07:41,Agnieszka,1
61fa9,61fa9_session2_listb_naming_trial020_sink.wav,2,b,naming,20,sink,976,correct,NA,Mar  7 2023 02:07:49,Agnieszka,1
61fa9,61fa9_session2_listb_naming_trial021_coffee.wav,2,b,naming,21,coffee,966,correct,NA,Mar  7 2023 02:08:00,Agnieszka,1
61fa9,61fa9_session2_listb_naming_trial022_broccoli.wav,2,b,naming,22,broccoli,1380,correct,NA,Mar  7 2023 02:08:08,Agnieszka,1
61fa9,61fa9_session2_listb_naming_trial023_face.wav,2,b,naming,23,face,890,correct,NA,Mar  7 2023 02:08:17,Agnieszka,1
61fa9,61fa9_session2_listb_naming_trial024_button.wav,2,b,naming,24,button,1119,correct,NA,Mar  7 2023 02:08:30,Agnieszka,1
61fa9,61fa9_session2_listb_naming_trial025_road.wav,2,b,naming,25,road,1224,correct,NA,Mar  7 2023 02:08:38,Agnieszka,1
61fa9,61fa9_session2_listb_naming_trial026_asparagus.wav,2,b,naming,26,asparagus,791,correct,NA,Mar  7 2023 02:08:47,Agnieszka,1
61fa9,61fa9_session2_listb_naming_trial027_scarecrow.wav,2,b,naming,27,scarecrow,906,correct,NA,Mar  7 2023 02:09:01,Agnieszka,1
61fa9,61fa9_session2_listb_naming_trial028_penguin.wav,2,b,naming,28,penguin,1278,correct,NA,Mar  7 2023 02:09:11,Agnieszka,1
61fa9,61fa9_session2_listb_naming_trial029_cloud.wav,2,b,naming,29,cloud,1062,correct,NA,Mar  7 2023 02:09:27,Agnieszka,1
61fa9,61fa9_session2_listb_naming_trial030_nose.wav,2,b,naming,30,nose,1374,correct,NA,Mar  7 2023 02:09:39,Agnieszka,1
61fa9,61fa9_session2_listb_naming_trial031_dragon.wav,2,b,naming,31,dragon,836,correct,NA,Mar  7 2023 02:16:53,Agnieszka,1
61fa9,61fa9_session2_listb_naming_trial032_torch.wav,2,b,naming,32,torch,1409,correct,NA,Mar  7 2023 02:17:03,Agnieszka,1
61fa9,61fa9_session2_listb_naming_trial033_gun.wav,2,b,naming,33,gun,992,correct,NA,Mar  7 2023 02:17:10,Agnieszka,1
61fa9,61fa9_session2_listb_naming_trial034_fruit.wav,2,b,naming,34,fruit,813,correct,NA,Mar  7 2023 02:17:24,Agnieszka,1
61fa9,61fa9_session2_listb_naming_trial035_door.wav,2,b,naming,35,door,868,correct,NA,Mar  7 2023 02:17:35,Agnieszka,1
61fa9,61fa9_session2_listb_naming_trial036_shadow.wav,2,b,naming,36,shadow,1122,correct,NA,Mar  7 2023 02:17:50,Agnieszka,1
61fa9,61fa9_session2_listb_naming_trial037_bra.wav,2,b,naming,37,bra,931,correct,NA,Mar  7 2023 02:17:58,Agnieszka,1
61fa9,61fa9_session2_listb_naming_trial038_moustache.wav,2,b,naming,38,moustache,973,correct,NA,Mar  7 2023 02:18:06,Agnieszka,1
61fa9,61fa9_session2_listb_naming_trial039_nurse.wav,2,b,naming,39,nurse,1215,correct,NA,Mar  7 2023 02:18:14,Agnieszka,1
61fa9,61fa9_session2_listb_naming_trial040_bedroom.wav,2,b,naming,40,bedroom,1352,correct,NA,Mar  7 2023 02:18:23,Agnieszka,1
61fa9,61fa9_session2_listb_naming_trial041_wallet.wav,2,b,naming,41,wallet,896,correct,NA,Mar  7 2023 02:18:39,Agnieszka,1
61fa9,61fa9_session2_listb_naming_trial042_scarf.wav,2,b,naming,42,scarf,737,correct,NA,Mar  7 2023 02:19:03,Agnieszka,1
61fa9,61fa9_session2_listb_naming_trial043_pilot.wav,2,b,naming,43,pilot,887,correct,NA,Mar  7 2023 02:19:15,Agnieszka,1
61fa9,61fa9_session2_listb_naming_trial044_trumpet.wav,2,b,naming,44,trumpet,871,correct,NA,Mar  7 2023 02:19:26,Agnieszka,1
61fa9,61fa9_session2_listb_naming_trial045_earring.wav,2,b,naming,45,earring,1457,correct,NA,Mar  7 2023 02:19:36,Agnieszka,1
61fa9,61fa9_session2_listb_naming_trial046_telephone.wav,2,b,naming,46,telephone,1087,correct,NA,Mar  7 2023 02:19:44,Agnieszka,1
61fa9,61fa9_session2_listb_naming_trial047_back.wav,2,b,naming,47,back,794,correct,NA,Mar  7 2023 02:19:54,Agnieszka,1
61fa9,61fa9_session2_listb_naming_trial048_lion.wav,2,b,naming,48,lion,801,correct,NA,Mar  7 2023 02:20:02,Agnieszka,1
61fa9,61fa9_session2_listb_naming_trial049_roof.wav,2,b,naming,49,roof,992,correct,NA,Mar  7 2023 02:20:10,Agnieszka,1
61fa9,61fa9_session2_listb_naming_trial050_volcano.wav,2,b,naming,50,volcano,931,correct,NA,Mar  7 2023 02:20:18,Agnieszka,1
61fa9,61fa9_session2_listb_naming_trial051_baby.wav,2,b,naming,51,baby,836,correct,NA,Mar  7 2023 02:20:26,Agnieszka,1
61fa9,61fa9_session2_listb_naming_trial052_spoon.wav,2,b,naming,52,spoon,683,correct,NA,Mar  7 2023 02:24:09,Agnieszka,1
61fa9,61fa9_session2_listb_naming_trial053_iron.wav,2,b,naming,53,iron,1033,correct,NA,Mar  7 2023 02:24:16,Agnieszka,1
61fa9,61fa9_session2_listb_naming_trial054_skeleton.wav,2,b,naming,54,skeleton,1323,correct,NA,Mar  7 2023 02:24:26,Agnieszka,1
61fa9,61fa9_session2_listb_naming_trial055_chain.wav,2,b,naming,55,chain,1227,correct,NA,Mar  7 2023 02:24:35,Agnieszka,1
61fa9,61fa9_session2_listb_naming_trial056_calendar.wav,2,b,naming,56,calendar,1110,correct,NA,Mar  7 2023 02:24:42,Agnieszka,1
61fa9,61fa9_session2_listb_naming_trial057_cactus.wav,2,b,naming,57,cactus,1383,correct,NA,Mar  7 2023 02:25:05,Agnieszka,1
61fa9,61fa9_session2_listb_naming_trial058_caravan.wav,2,b,naming,58,caravan,791,correct,NA,Mar  7 2023 02:25:17,Agnieszka,1
61fa9,61fa9_session2_listb_naming_trial059_condom.wav,2,b,naming,59,condom,1505,correct,NA,Mar  7 2023 02:25:26,Agnieszka,1
61fa9,61fa9_session2_listb_naming_trial060_farm.wav,2,b,naming,60,farm,1333,correct,NA,Mar  7 2023 02:25:34,Agnieszka,1
61fa9,61fa9_session2_listb_naming_trial061_eye.wav,2,b,naming,61,eye,1020,correct,NA,Mar  7 2023 02:25:41,Agnieszka,1
61fa9,61fa9_session2_listb_naming_trial062_devil.wav,2,b,naming,62,devil,886,correct,NA,Mar  7 2023 02:28:15,Agnieszka,1
61fa9,61fa9_session2_listb_naming_trial063_balloon.wav,2,b,naming,63,balloon,711,correct,NA,Mar  7 2023 02:28:30,Agnieszka,1
61fa9,61fa9_session2_listb_naming_trial064_hand.wav,2,b,naming,64,hand,762,correct,NA,Mar  7 2023 02:28:41,Agnieszka,1
61fa9,61fa9_session2_listb_naming_trial065_tooth.wav,2,b,naming,65,tooth,1106,correct,NA,Mar  7 2023 02:28:58,Agnieszka,1
61fa9,61fa9_session2_listb_naming_trial066_harp.wav,2,b,naming,66,harp,743,correct,NA,Mar  7 2023 02:29:12,Agnieszka,1
61fa9,61fa9_session2_listb_naming_trial067_airport.wav,2,b,naming,67,airport,1237,correct,NA,Mar  7 2023 02:29:23,Agnieszka,1
61fa9,61fa9_session2_listb_naming_trial068_lab.wav,2,b,naming,68,lab,1454,correct,NA,Mar  7 2023 02:29:32,Agnieszka,1
61fa9,61fa9_session2_listb_naming_trial069_cannon.wav,2,b,naming,69,cannon,1234,correct,NA,Mar  7 2023 02:29:40,Agnieszka,1
61fa9,61fa9_session2_listb_naming_trial070_camera.wav,2,b,naming,70,camera,1454,correct,NA,Mar  7 2023 02:29:53,Agnieszka,1
61fa9,61fa9_session2_listb_naming_trial071_fire.wav,2,b,naming,71,fire,1176,correct,NA,Mar  7 2023 02:30:08,Agnieszka,1
61fa9,61fa9_session2_listb_naming_trial072_dinosaur.wav,2,b,naming,72,dinosaur,1549,correct,NA,Mar  7 2023 02:30:19,Agnieszka,1
61fa9,61fa9_session2_listb_naming_trial073_jar.wav,2,b,naming,73,jar,890,correct,NA,Mar  7 2023 02:30:32,Agnieszka,1
61fa9,61fa9_session2_listb_naming_trial074_tank.wav,2,b,naming,74,tank,1313,correct,NA,Mar  7 2023 02:30:40,Agnieszka,1
61fa9,61fa9_session2_listb_naming_trial075_umbrella.wav,2,b,naming,75,umbrella,731,correct,NA,Mar  7 2023 02:32:16,Agnieszka,1
61fa9,61fa9_session2_listb_naming_trial076_elephant.wav,2,b,naming,76,elephant,740,correct,NA,Mar  7 2023 02:32:31,Agnieszka,1
61fa9,61fa9_session2_listb_naming_trial077_guitar.wav,2,b,naming,77,guitar,1017,correct,NA,Mar  7 2023 02:32:40,Agnieszka,1
61fa9,61fa9_session2_listb_naming_trial078_diamond.wav,2,b,naming,78,diamond,928,correct,NA,Mar  7 2023 02:32:48,Agnieszka,1
61fa9,61fa9_session2_listb_naming_trial079_egg.wav,2,b,naming,79,egg,1164,correct,NA,Mar  7 2023 02:32:56,Agnieszka,1
61fa9,61fa9_session2_listb_naming_trial080_ankle.wav,2,b,naming,80,ankle,1250,correct,NA,Mar  7 2023 02:33:07,Agnieszka,1
61fa9,61fa9_session2_listb_naming_trial081_shark.wav,2,b,naming,81,shark,1613,correct,NA,Mar  7 2023 02:33:18,Agnieszka,1
61fa9,61fa9_session2_listb_naming_trial082_car.wav,2,b,naming,82,car,1106,correct,NA,Mar  7 2023 02:33:28,Agnieszka,1
61fa9,61fa9_session2_listb_naming_trial083_pool.wav,2,b,naming,83,pool,960,correct,NA,Mar  7 2023 02:33:42,Agnieszka,1
61fa9,61fa9_session2_listb_naming_trial084_nun.wav,2,b,naming,84,nun,1215,correct,NA,Mar  7 2023 02:33:58,Agnieszka,1
61fa9,61fa9_session2_listb_naming_trial085_microphone.wav,2,b,naming,85,microphone,1329,correct,NA,Mar  7 2023 02:34:11,Agnieszka,1
61fa9,61fa9_session2_listb_naming_trial086_feather.wav,2,b,naming,86,feather,1087,correct,NA,Mar  7 2023 02:34:23,Agnieszka,1
61fa9,61fa9_session2_listb_naming_trial087_television.wav,2,b,naming,87,television,-1,wrong_word,NA,Mar  7 2023 02:34:32,Agnieszka,1
61fa9,61fa9_session2_listb_naming_trial088_fan.wav,2,b,naming,88,fan,1208,correct,NA,Mar  7 2023 02:34:52,Agnieszka,1
61fa9,61fa9_session2_listb_naming_trial089_mask.wav,2,b,naming,89,mask,976,correct,NA,Mar  7 2023 02:35:06,Agnieszka,1
61fa9,61fa9_session2_listb_naming_trial090_knee.wav,2,b,naming,90,knee,912,correct,NA,Mar  7 2023 02:35:36,Agnieszka,1
61fa9,61fa9_session2_listb_naming_trial091_coconut.wav,2,b,naming,91,coconut,1243,correct,NA,Mar  7 2023 02:35:52,Agnieszka,1
61fa9,61fa9_session2_listb_naming_trial092_ring.wav,2,b,naming,92,ring,829,correct,NA,Mar  7 2023 02:36:06,Agnieszka,1
61fa9,61fa9_session2_listb_naming_trial093_finger.wav,2,b,naming,93,finger,931,correct,NA,Mar  7 2023 02:36:15,Agnieszka,1
61fa9,61fa9_session2_listb_naming_trial094_printer.wav,2,b,naming,94,printer,1081,correct,NA,Mar  7 2023 02:36:22,Agnieszka,1
61fa9,61fa9_session2_listb_naming_trial095_calculator.wav,2,b,naming,95,calculator,1106,correct,NA,Mar  7 2023 02:36:34,Agnieszka,1
61fa9,61fa9_session2_listb_naming_trial096_skull.wav,2,b,naming,96,skull,1297,correct,NA,Mar  7 2023 02:36:42,Agnieszka,1
61fa9,61fa9_session2_listb_naming_trial097_belt.wav,2,b,naming,97,belt,992,correct,NA,Mar  7 2023 02:36:50,Agnieszka,1
61fa9,61fa9_session2_listb_naming_trial098_pumpkin.wav,2,b,naming,98,pumpkin,992,correct,NA,Mar  7 2023 02:36:58,Agnieszka,1
61fa9,61fa9_session2_listb_naming_trial099_greenhouse.wav,2,b,naming,99,greenhouse,2186,correct,NA,Mar  7 2023 02:37:07,Agnieszka,1
61fa9,61fa9_session2_listb_naming_trial100_dolphin.wav,2,b,naming,100,dolphin,1036,correct,NA,Mar  7 2023 02:37:16,Agnieszka,1
61fa9,61fa9_session2_listb_naming_trial101_handle.wav,2,b,naming,101,handle,1247,correct,NA,Mar  7 2023 02:37:24,Agnieszka,1
61fa9,61fa9_session2_listb_naming_trial102_honey.wav,2,b,naming,102,honey,845,correct,NA,Mar  7 2023 02:37:44,Agnieszka,1
61fa9,61fa9_session2_listb_naming_trial103_waiter.wav,2,b,naming,103,waiter,906,correct,NA,Mar  7 2023 02:37:53,Agnieszka,1
61fa9,61fa9_session2_listb_naming_trial104_cowboy.wav,2,b,naming,104,cowboy,1301,correct,NA,Mar  7 2023 02:38:02,Agnieszka,1
61fa9,61fa9_session2_listb_naming_trial105_football.wav,2,b,naming,105,football,817,correct,NA,Mar  7 2023 02:38:21,Agnieszka,1
61fa9,61fa9_session2_listb_naming_trial106_sheep.wav,2,b,naming,106,sheep,1062,correct,NA,Mar  7 2023 02:38:29,Agnieszka,1
61fa9,61fa9_session2_listb_naming_trial107_frog.wav,2,b,naming,107,frog,1040,correct,NA,Mar  7 2023 02:38:44,Agnieszka,1
61fa9,61fa9_session2_listb_naming_trial108_duck.wav,2,b,naming,108,duck,775,correct,NA,Mar  7 2023 02:38:52,Agnieszka,1
61fa9,61fa9_session2_listb_naming_trial109_heart.wav,2,b,naming,109,heart,985,correct,NA,Mar  7 2023 02:39:03,Agnieszka,1
61fa9,61fa9_session2_listb_naming_trial110_glass.wav,2,b,naming,110,glass,928,correct,NA,Mar  7 2023 02:39:13,Agnieszka,1
61fa9,61fa9_session2_listb_naming_trial111_keyboard.wav,2,b,naming,111,keyboard,836,correct,NA,Mar  7 2023 02:39:56,Agnieszka,1
61fa9,61fa9_session2_listb_naming_trial112_boomerang.wav,2,b,naming,112,boomerang,1138,correct,NA,Mar  7 2023 02:40:10,Agnieszka,1
61fa9,61fa9_session2_listb_naming_trial113_snail.wav,2,b,naming,113,snail,1036,correct,NA,Mar  7 2023 02:40:20,Agnieszka,1
61fa9,61fa9_session2_listb_naming_trial114_swimming.wav,2,b,naming,114,swimming,1017,correct,NA,Mar  7 2023 02:40:34,Agnieszka,1
61fa9,61fa9_session2_listb_naming_trial115_cigarette.wav,2,b,naming,115,cigarette,801,correct,NA,Mar  7 2023 02:40:45,Agnieszka,1
61fa9,61fa9_session2_listb_naming_trial116_witch.wav,2,b,naming,116,witch,1985,correct,NA,Mar  7 2023 02:40:54,Agnieszka,1
61fa9,61fa9_session2_listb_naming_trial117_apron.wav,2,b,naming,117,apron,1403,correct,NA,Mar  7 2023 02:41:02,Agnieszka,1
61fa9,61fa9_session2_listb_naming_trial118_foot.wav,2,b,naming,118,foot,804,correct,NA,Mar  7 2023 02:41:10,Agnieszka,1
61fa9,61fa9_session2_listb_naming_trial119_mirror.wav,2,b,naming,119,mirror,1183,correct,NA,Mar  7 2023 02:41:26,Agnieszka,1
61fa9,61fa9_session2_listb_naming_trial120_brain.wav,2,b,naming,120,brain,839,correct,NA,Mar  7 2023 02:41:36,Agnieszka,1
61fa9,61fa9_session2_listb_naming_trial121_strawberry.wav,2,b,naming,121,strawberry,785,correct,NA,Mar  7 2023 02:41:49,Agnieszka,1
61fa9,61fa9_session2_listb_naming_trial122_hair.wav,2,b,naming,122,hair,1186,correct,NA,Mar  7 2023 02:41:56,Agnieszka,1
61fa9,61fa9_session2_listb_naming_trial123_man.wav,2,b,naming,123,man,2138,correct,NA,Mar  7 2023 02:42:02,Agnieszka,1
61fa9,61fa9_session2_listb_naming_trial124_pizza.wav,2,b,naming,124,pizza,1291,correct,NA,Mar  7 2023 02:42:15,Agnieszka,1
61fa9,61fa9_session2_listb_naming_trial125_ambulance.wav,2,b,naming,125,ambulance,1380,correct,NA,Mar  7 2023 02:42:30,Agnieszka,1
61fa9,61fa9_session2_listb_naming_trial126_stapler.wav,2,b,naming,126,stapler,1192,correct,NA,Mar  7 2023 02:42:54,Agnieszka,1
61fa9,61fa9_session2_listb_naming_trial127_house.wav,2,b,naming,127,house,963,correct,NA,Mar  7 2023 02:43:02,Agnieszka,1
61fa9,61fa9_session2_listb_naming_trial128_bed.wav,2,b,naming,128,bed,836,correct,NA,Mar  7 2023 02:43:10,Agnieszka,1
61fa9,61fa9_session2_listb_naming_trial129_bible.wav,2,b,naming,129,bible,1285,correct,NA,Mar  7 2023 02:43:18,Agnieszka,1
61fa9,61fa9_session2_listb_naming_trial130_burger.wav,2,b,naming,130,burger,1027,correct,NA,Mar  7 2023 02:43:31,Agnieszka,1
61fa9,61fa9_session2_listb_naming_trial131_skateboard.wav,2,b,naming,131,skateboard,1692,correct,NA,Mar  7 2023 02:43:54,Agnieszka,1
61fa9,61fa9_session2_listb_naming_trial132_watch.wav,2,b,naming,132,watch,912,correct,NA,Mar  7 2023 02:44:01,Agnieszka,1
61fa9,61fa9_session2_listb_naming_trial133_shirt.wav,2,b,naming,133,shirt,1106,correct,NA,Mar  7 2023 02:44:09,Agnieszka,1
61fa9,61fa9_session2_listb_naming_trial134_coffin.wav,2,b,naming,134,coffin,836,correct,NA,Mar  7 2023 02:44:19,Agnieszka,1
61fa9,61fa9_session2_listb_naming_trial135_parachute.wav,2,b,naming,135,parachute,1004,correct,NA,Mar  7 2023 02:44:28,Agnieszka,1
61fa9,61fa9_session2_listb_naming_trial136_pirate.wav,2,b,naming,136,pirate,852,correct,NA,Mar  7 2023 02:44:37,Agnieszka,1
61fa9,61fa9_session2_listb_naming_trial137_bat.wav,2,b,naming,137,bat,782,correct,NA,Mar  7 2023 02:44:45,Agnieszka,1
61fa9,61fa9_session2_listb_naming_trial138_scorpion.wav,2,b,naming,138,scorpion,903,correct,NA,Mar  7 2023 02:44:55,Agnieszka,1
61fa9,61fa9_session2_listb_naming_trial139_cone.wav,2,b,naming,139,cone,1527,correct,NA,Mar  7 2023 02:45:03,Agnieszka,1
61fa9,61fa9_session2_listb_naming_trial140_cage.wav,2,b,naming,140,cage,1501,correct,NA,Mar  7 2023 02:45:12,Agnieszka,1
61fa9,61fa9_session2_listb_naming_trial141_glasses.wav,2,b,naming,141,glasses,848,correct,NA,Mar  7 2023 02:45:19,Agnieszka,1
61fa9,61fa9_session2_listb_naming_trial142_lizard.wav,2,b,naming,142,lizard,1438,correct,NA,Mar  7 2023 02:45:27,Agnieszka,1
61fa9,61fa9_session2_listb_naming_trial143_needle.wav,2,b,naming,143,needle,893,correct,NA,Mar  7 2023 02:45:36,Agnieszka,1
61fa9,61fa9_session2_listb_naming_trial144_crown.wav,2,b,naming,144,crown,861,correct,NA,Mar  7 2023 02:45:44,Agnieszka,1
61fa9,61fa9_session2_listb_naming_trial145_hedgehog.wav,2,b,naming,145,hedgehog,1103,correct,NA,Mar  7 2023 02:45:52,Agnieszka,1
61fa9,61fa9_session2_listb_naming_trial146_king.wav,2,b,naming,146,king,1132,correct,NA,Mar  7 2023 02:46:02,Agnieszka,1
61fa9,61fa9_session2_listb_naming_trial147_girl.wav,2,b,naming,147,girl,817,correct,NA,Mar  7 2023 02:46:28,Agnieszka,1
61fa9,61fa9_session2_listb_naming_trial148_fist.wav,2,b,naming,148,fist,1501,correct,NA,Mar  7 2023 02:46:42,Agnieszka,1
61fa9,61fa9_session2_listb_naming_trial149_giraffe.wav,2,b,naming,149,giraffe,992,correct,NA,Mar  7 2023 02:47:37,Agnieszka,1
61fa9,61fa9_session2_listb_naming_trial150_leaf.wav,2,b,naming,150,leaf,1071,correct,NA,Mar  7 2023 02:47:46,Agnieszka,1
