Participant_ID,File_Name,Session,List,Type_Trial,Trial_Nbr,Target,RT,Response_Trial,Comment,Date_Correction,Assessor_Name,Processed
5c4f5,5c4f5_session2_listb_naming_trial001_chain.wav,2,b,naming,1,chain,806,correct,NA,Feb  2 2023 15:20:11,Agnieszka,1
5c4f5,5c4f5_session2_listb_naming_trial002_nurse.wav,2,b,naming,2,nurse,768,correct,NA,Feb  2 2023 15:20:20,Agnieszka,1
5c4f5,5c4f5_session2_listb_naming_trial003_ambulance.wav,2,b,naming,3,ambulance,850,correct,NA,Feb  2 2023 15:20:37,Agnieszka,1
5c4f5,5c4f5_session2_listb_naming_trial004_cowboy.wav,2,b,naming,4,cowboy,1034,correct,NA,Feb  2 2023 15:20:50,Agnieszka,1
5c4f5,5c4f5_session2_listb_naming_trial005_swimming.wav,2,b,naming,5,swimming,-1,wrong_word,NA,Feb  2 2023 15:21:07,Agnieszka,1
5c4f5,5c4f5_session2_listb_naming_trial006_telephone.wav,2,b,naming,6,telephone,885,correct,NA,Feb  2 2023 15:21:16,Agnieszka,1
5c4f5,5c4f5_session2_listb_naming_trial007_trumpet.wav,2,b,naming,7,trumpet,863,correct,NA,Feb  2 2023 15:21:24,Agnieszka,1
5c4f5,5c4f5_session2_listb_naming_trial008_bed.wav,2,b,naming,8,bed,1072,correct,NA,Feb  2 2023 15:21:36,Agnieszka,1
5c4f5,5c4f5_session2_listb_naming_trial009_sheep.wav,2,b,naming,9,sheep,882,correct,NA,Feb  2 2023 15:21:54,Agnieszka,1
5c4f5,5c4f5_session2_listb_naming_trial010_nose.wav,2,b,naming,10,nose,882,correct,NA,Feb  2 2023 15:22:04,Agnieszka,1
5c4f5,5c4f5_session2_listb_naming_trial011_glasses.wav,2,b,naming,11,glasses,1037,correct,NA,Feb  2 2023 15:22:13,Agnieszka,1
5c4f5,5c4f5_session2_listb_naming_trial012_lemon.wav,2,b,naming,12,lemon,1037,correct,NA,Feb  2 2023 15:22:31,Agnieszka,1
5c4f5,5c4f5_session2_listb_naming_trial013_lab.wav,2,b,naming,13,lab,1114,correct,NA,Feb  2 2023 15:22:49,Agnieszka,1
5c4f5,5c4f5_session2_listb_naming_trial014_dolphin.wav,2,b,naming,14,dolphin,1040,correct,NA,Feb  2 2023 15:22:56,Agnieszka,1
5c4f5,5c4f5_session2_listb_naming_trial015_hand.wav,2,b,naming,15,hand,843,correct,NA,Feb  2 2023 15:23:03,Agnieszka,1
5c4f5,5c4f5_session2_listb_naming_trial016_cigarette.wav,2,b,naming,16,cigarette,876,correct,NA,Feb  2 2023 15:23:12,Agnieszka,1
5c4f5,5c4f5_session2_listb_naming_trial017_back.wav,2,b,naming,17,back,904,correct,NA,Feb  2 2023 15:23:22,Agnieszka,1
5c4f5,5c4f5_session2_listb_naming_trial018_skeleton.wav,2,b,naming,18,skeleton,821,correct,NA,Feb  2 2023 15:23:38,Agnieszka,1
5c4f5,5c4f5_session2_listb_naming_trial019_scarecrow.wav,2,b,naming,19,scarecrow,746,correct,NA,Feb  2 2023 15:23:45,Agnieszka,1
5c4f5,5c4f5_session2_listb_naming_trial020_tank.wav,2,b,naming,20,tank,828,correct,NA,Feb  2 2023 15:23:57,Agnieszka,1
5c4f5,5c4f5_session2_listb_naming_trial021_car.wav,2,b,naming,21,car,802,correct,NA,Feb  2 2023 15:24:07,Agnieszka,1
5c4f5,5c4f5_session2_listb_naming_trial022_balloon.wav,2,b,naming,22,balloon,917,correct,NA,Feb  2 2023 15:24:14,Agnieszka,1
5c4f5,5c4f5_session2_listb_naming_trial023_pumpkin.wav,2,b,naming,23,pumpkin,857,correct,NA,Feb  2 2023 15:24:24,Agnieszka,1
5c4f5,5c4f5_session2_listb_naming_trial024_face.wav,2,b,naming,24,face,851,correct,NA,Feb  2 2023 15:24:32,Agnieszka,1
5c4f5,5c4f5_session2_listb_naming_trial025_belt.wav,2,b,naming,25,belt,1021,correct,NA,Feb  2 2023 15:24:40,Agnieszka,1
5c4f5,5c4f5_session2_listb_naming_trial026_hair.wav,2,b,naming,26,hair,1021,correct,NA,Feb  2 2023 15:24:51,Agnieszka,1
5c4f5,5c4f5_session2_listb_naming_trial027_guitar.wav,2,b,naming,27,guitar,1252,correct,NA,Feb  2 2023 15:25:04,Agnieszka,1
5c4f5,5c4f5_session2_listb_naming_trial028_brain.wav,2,b,naming,28,brain,920,correct,NA,Feb  2 2023 15:25:13,Agnieszka,1
5c4f5,5c4f5_session2_listb_naming_trial029_roof.wav,2,b,naming,29,roof,986,correct,NA,Feb  2 2023 15:25:24,Agnieszka,1
5c4f5,5c4f5_session2_listb_naming_trial030_cactus.wav,2,b,naming,30,cactus,721,correct,NA,Feb  2 2023 15:25:34,Agnieszka,1
5c4f5,5c4f5_session2_listb_naming_trial031_fire.wav,2,b,naming,31,fire,996,correct,NA,Feb  2 2023 15:25:52,Agnieszka,1
5c4f5,5c4f5_session2_listb_naming_trial032_microphone.wav,2,b,naming,32,microphone,1072,correct,NA,Feb  2 2023 15:26:01,Agnieszka,1
5c4f5,5c4f5_session2_listb_naming_trial033_pirate.wav,2,b,naming,33,pirate,1279,correct,NA,Feb  2 2023 15:26:08,Agnieszka,1
5c4f5,5c4f5_session2_listb_naming_trial034_printer.wav,2,b,naming,34,printer,1034,correct,NA,Feb  2 2023 15:26:16,Agnieszka,1
5c4f5,5c4f5_session2_listb_naming_trial035_scorpion.wav,2,b,naming,35,scorpion,904,correct,NA,Feb  2 2023 15:26:27,Agnieszka,1
5c4f5,5c4f5_session2_listb_naming_trial036_vein.wav,2,b,naming,36,vein,958,correct,NA,Feb  2 2023 15:26:46,Agnieszka,1
5c4f5,5c4f5_session2_listb_naming_trial037_cannon.wav,2,b,naming,37,cannon,942,correct,NA,Feb  2 2023 15:27:03,Agnieszka,1
5c4f5,5c4f5_session2_listb_naming_trial038_door.wav,2,b,naming,38,door,907,correct,NA,Feb  2 2023 15:27:13,Agnieszka,1
5c4f5,5c4f5_session2_listb_naming_trial039_nun.wav,2,b,naming,39,nun,1409,correct,NA,Feb  2 2023 15:27:23,Agnieszka,1
5c4f5,5c4f5_session2_listb_naming_trial040_bin.wav,2,b,naming,40,bin,1327,correct,NA,Feb  2 2023 15:28:01,Agnieszka,1
5c4f5,5c4f5_session2_listb_naming_trial041_ankle.wav,2,b,naming,41,ankle,932,correct,NA,Feb  2 2023 15:28:02,Agnieszka,1
5c4f5,5c4f5_session2_listb_naming_trial042_pilot.wav,2,b,naming,42,pilot,-1,correct,NA,Feb  2 2023 15:28:03,Agnieszka,1
5c4f5,5c4f5_session2_listb_naming_trial043_dog.wav,2,b,naming,43,dog,980,correct,NA,Feb  2 2023 15:28:13,Agnieszka,1
5c4f5,5c4f5_session2_listb_naming_trial044_feather.wav,2,b,naming,44,feather,789,correct,NA,Feb  2 2023 15:28:24,Agnieszka,1
5c4f5,5c4f5_session2_listb_naming_trial045_torch.wav,2,b,naming,45,torch,-1,wrong_word,NA,Feb  2 2023 15:28:33,Agnieszka,1
5c4f5,5c4f5_session2_listb_naming_trial046_dragon.wav,2,b,naming,46,dragon,1218,correct,NA,Feb  2 2023 15:28:43,Agnieszka,1
5c4f5,5c4f5_session2_listb_naming_trial047_television.wav,2,b,naming,47,television,-1,wrong_word,NA,Feb  2 2023 15:28:49,Agnieszka,1
5c4f5,5c4f5_session2_listb_naming_trial048_eye.wav,2,b,naming,48,eye,1444,correct,NA,Feb  2 2023 15:28:56,Agnieszka,1
5c4f5,5c4f5_session2_listb_naming_trial049_earring.wav,2,b,naming,49,earring,1116,correct,NA,Feb  2 2023 15:29:05,Agnieszka,1
5c4f5,5c4f5_session2_listb_naming_trial050_cone.wav,2,b,naming,50,cone,-1,wrong_word,NA,Feb  2 2023 15:29:12,Agnieszka,1
5c4f5,5c4f5_session2_listb_naming_trial051_iron.wav,2,b,naming,51,iron,1605,correct,NA,Feb  2 2023 15:29:33,Agnieszka,1
5c4f5,5c4f5_session2_listb_naming_trial052_shark.wav,2,b,naming,52,shark,1107,correct,NA,Feb  2 2023 15:29:40,Agnieszka,1
5c4f5,5c4f5_session2_listb_naming_trial053_condom.wav,2,b,naming,53,condom,1078,correct,NA,Feb  2 2023 15:29:51,Agnieszka,1
5c4f5,5c4f5_session2_listb_naming_trial054_honey.wav,2,b,naming,54,honey,1247,correct,NA,Feb  2 2023 15:30:01,Agnieszka,1
5c4f5,5c4f5_session2_listb_naming_trial055_duck.wav,2,b,naming,55,duck,936,correct,NA,Feb  2 2023 15:30:11,Agnieszka,1
5c4f5,5c4f5_session2_listb_naming_trial056_parachute.wav,2,b,naming,56,parachute,-1,no_resp,NA,Feb  2 2023 15:30:19,Agnieszka,1
5c4f5,5c4f5_session2_listb_naming_trial057_lion.wav,2,b,naming,57,lion,1012,correct,NA,Feb  2 2023 15:33:31,Agnieszka,1
5c4f5,5c4f5_session2_listb_naming_trial058_foot.wav,2,b,naming,58,foot,1128,correct,NA,Feb  2 2023 15:33:38,Agnieszka,1
5c4f5,5c4f5_session2_listb_naming_trial059_crown.wav,2,b,naming,59,crown,1053,correct,NA,Feb  2 2023 15:33:47,Agnieszka,1
5c4f5,5c4f5_session2_listb_naming_trial060_butcher.wav,2,b,naming,60,butcher,1056,correct,NA,Feb  2 2023 15:33:57,Agnieszka,1
5c4f5,5c4f5_session2_listb_naming_trial061_spoon.wav,2,b,naming,61,spoon,800,correct,NA,Feb  2 2023 15:34:51,Agnieszka,1
5c4f5,5c4f5_session2_listb_naming_trial062_coffin.wav,2,b,naming,62,coffin,882,correct,NA,Feb  2 2023 15:35:03,Agnieszka,1
5c4f5,5c4f5_session2_listb_naming_trial063_finger.wav,2,b,naming,63,finger,-1,wrong_word,NA,Feb  2 2023 15:35:12,Agnieszka,1
5c4f5,5c4f5_session2_listb_naming_trial064_choir.wav,2,b,naming,64,choir,1135,correct,NA,Feb  2 2023 15:35:20,Agnieszka,1
5c4f5,5c4f5_session2_listb_naming_trial065_witch.wav,2,b,naming,65,witch,1819,correct,NA,Feb  2 2023 15:35:33,Agnieszka,1
5c4f5,5c4f5_session2_listb_naming_trial066_elephant.wav,2,b,naming,66,elephant,1078,correct,NA,Feb  2 2023 15:35:47,Agnieszka,1
5c4f5,5c4f5_session2_listb_naming_trial067_bible.wav,2,b,naming,67,bible,948,correct,NA,Feb  2 2023 15:35:59,Agnieszka,1
5c4f5,5c4f5_session2_listb_naming_trial068_asparagus.wav,2,b,naming,68,asparagus,898,correct,NA,Feb  2 2023 15:36:07,Agnieszka,1
5c4f5,5c4f5_session2_listb_naming_trial069_burger.wav,2,b,naming,69,burger,986,correct,NA,Feb  2 2023 15:36:14,Agnieszka,1
5c4f5,5c4f5_session2_listb_naming_trial070_road.wav,2,b,naming,70,road,1166,correct,NA,Feb  2 2023 15:36:26,Agnieszka,1
5c4f5,5c4f5_session2_listb_naming_trial071_sink.wav,2,b,naming,71,sink,1323,correct,NA,Feb  2 2023 15:36:34,Agnieszka,1
5c4f5,5c4f5_session2_listb_naming_trial072_well.wav,2,b,naming,72,well,876,correct,NA,Feb  2 2023 15:36:43,Agnieszka,1
5c4f5,5c4f5_session2_listb_naming_trial073_pool.wav,2,b,naming,73,pool,1056,correct,NA,Feb  2 2023 15:36:51,Agnieszka,1
5c4f5,5c4f5_session2_listb_naming_trial074_camera.wav,2,b,naming,74,camera,1128,correct,NA,Feb  2 2023 15:36:59,Agnieszka,1
5c4f5,5c4f5_session2_listb_naming_trial075_airport.wav,2,b,naming,75,airport,961,correct,NA,Feb  2 2023 15:37:07,Agnieszka,1
5c4f5,5c4f5_session2_listb_naming_trial076_strawberry.wav,2,b,naming,76,strawberry,800,correct,NA,Feb  2 2023 15:37:15,Agnieszka,1
5c4f5,5c4f5_session2_listb_naming_trial077_skateboard.wav,2,b,naming,77,skateboard,1242,correct,NA,Feb  2 2023 15:37:22,Agnieszka,1
5c4f5,5c4f5_session2_listb_naming_trial078_moustache.wav,2,b,naming,78,moustache,1152,correct,NA,Feb  2 2023 15:37:31,Agnieszka,1
5c4f5,5c4f5_session2_listb_naming_trial079_chair.wav,2,b,naming,79,chair,816,correct,NA,Feb  2 2023 15:37:39,Agnieszka,1
5c4f5,5c4f5_session2_listb_naming_trial080_parrot.wav,2,b,naming,80,parrot,1192,correct,NA,Feb  2 2023 15:37:47,Agnieszka,1
5c4f5,5c4f5_session2_listb_naming_trial081_bedroom.wav,2,b,naming,81,bedroom,1377,correct,NA,Feb  2 2023 15:37:56,Agnieszka,1
5c4f5,5c4f5_session2_listb_naming_trial082_cloud.wav,2,b,naming,82,cloud,1498,correct,NA,Feb  2 2023 15:38:03,Agnieszka,1
5c4f5,5c4f5_session2_listb_naming_trial083_mirror.wav,2,b,naming,83,mirror,1630,correct,NA,Feb  2 2023 15:38:10,Agnieszka,1
5c4f5,5c4f5_session2_listb_naming_trial084_tooth.wav,2,b,naming,84,tooth,1372,correct,NA,Feb  2 2023 15:38:17,Agnieszka,1
5c4f5,5c4f5_session2_listb_naming_trial085_ring.wav,2,b,naming,85,ring,952,correct,NA,Feb  2 2023 15:38:25,Agnieszka,1
5c4f5,5c4f5_session2_listb_naming_trial086_keyboard.wav,2,b,naming,86,keyboard,853,correct,NA,Feb  2 2023 15:38:33,Agnieszka,1
5c4f5,5c4f5_session2_listb_naming_trial087_beard.wav,2,b,naming,87,beard,1581,correct,NA,Feb  2 2023 15:38:40,Agnieszka,1
5c4f5,5c4f5_session2_listb_naming_trial088_cage.wav,2,b,naming,88,cage,1940,correct,NA,Feb  2 2023 15:38:48,Agnieszka,1
5c4f5,5c4f5_session2_listb_naming_trial089_volcano.wav,2,b,naming,89,volcano,1040,correct,NA,Feb  2 2023 15:39:02,Agnieszka,1
5c4f5,5c4f5_session2_listb_naming_trial090_maze.wav,2,b,naming,90,maze,942,correct,NA,Feb  2 2023 15:39:10,Agnieszka,1
5c4f5,5c4f5_session2_listb_naming_trial091_umbrella.wav,2,b,naming,91,umbrella,1851,correct,NA,Feb  2 2023 15:39:29,Agnieszka,1
5c4f5,5c4f5_session2_listb_naming_trial092_stapler.wav,2,b,naming,92,stapler,1113,correct,NA,Feb  2 2023 15:39:37,Agnieszka,1
5c4f5,5c4f5_session2_listb_naming_trial093_jar.wav,2,b,naming,93,jar,1068,correct,NA,Feb  2 2023 15:39:45,Agnieszka,1
5c4f5,5c4f5_session2_listb_naming_trial094_sock.wav,2,b,naming,94,sock,1002,correct,NA,Feb  2 2023 15:39:52,Agnieszka,1
5c4f5,5c4f5_session2_listb_naming_trial095_boomerang.wav,2,b,naming,95,boomerang,1094,correct,NA,Feb  2 2023 15:40:01,Agnieszka,1
5c4f5,5c4f5_session2_listb_naming_trial096_bat.wav,2,b,naming,96,bat,1075,correct,NA,Feb  2 2023 15:40:12,Agnieszka,1
5c4f5,5c4f5_session2_listb_naming_trial097_knee.wav,2,b,naming,97,knee,1317,correct,NA,Feb  2 2023 15:40:20,Agnieszka,1
5c4f5,5c4f5_session2_listb_naming_trial098_fan.wav,2,b,naming,98,fan,1539,correct,NA,Feb  2 2023 15:40:28,Agnieszka,1
5c4f5,5c4f5_session2_listb_naming_trial099_watch.wav,2,b,naming,99,watch,948,correct,NA,Feb  2 2023 15:40:36,Agnieszka,1
5c4f5,5c4f5_session2_listb_naming_trial100_house.wav,2,b,naming,100,house,1406,correct,NA,Feb  2 2023 15:40:43,Agnieszka,1
5c4f5,5c4f5_session2_listb_naming_trial101_wallet.wav,2,b,naming,101,wallet,1031,correct,NA,Feb  2 2023 15:40:51,Agnieszka,1
5c4f5,5c4f5_session2_listb_naming_trial102_caravan.wav,2,b,naming,102,caravan,-1,wrong_word,NA,Feb  2 2023 15:40:58,Agnieszka,1
5c4f5,5c4f5_session2_listb_naming_trial103_fruit.wav,2,b,naming,103,fruit,1353,correct,NA,Feb  2 2023 15:41:06,Agnieszka,1
5c4f5,5c4f5_session2_listb_naming_trial104_man.wav,2,b,naming,104,man,1204,correct,NA,Feb  2 2023 15:41:14,Agnieszka,1
5c4f5,5c4f5_session2_listb_naming_trial105_fist.wav,2,b,naming,105,fist,939,correct,NA,Feb  2 2023 15:41:23,Agnieszka,1
5c4f5,5c4f5_session2_listb_naming_trial106_king.wav,2,b,naming,106,king,1113,correct,NA,Feb  2 2023 15:41:33,Agnieszka,1
5c4f5,5c4f5_session2_listb_naming_trial107_devil.wav,2,b,naming,107,devil,885,correct,NA,Feb  2 2023 15:41:41,Agnieszka,1
5c4f5,5c4f5_session2_listb_naming_trial108_coffee.wav,2,b,naming,108,coffee,1195,correct,NA,Feb  2 2023 15:41:56,Agnieszka,1
5c4f5,5c4f5_session2_listb_naming_trial109_greenhouse.wav,2,b,naming,109,greenhouse,1272,correct,NA,Feb  2 2023 15:42:04,Agnieszka,1
5c4f5,5c4f5_session2_listb_naming_trial110_calculator.wav,2,b,naming,110,calculator,929,correct,NA,Feb  2 2023 15:42:14,Agnieszka,1
5c4f5,5c4f5_session2_listb_naming_trial111_lizard.wav,2,b,naming,111,lizard,1085,correct,NA,Feb  2 2023 15:42:21,Agnieszka,1
5c4f5,5c4f5_session2_listb_naming_trial112_farm.wav,2,b,naming,112,farm,1321,correct,NA,Feb  2 2023 15:42:29,Agnieszka,1
5c4f5,5c4f5_session2_listb_naming_trial113_broccoli.wav,2,b,naming,113,broccoli,964,correct,NA,Feb  2 2023 15:42:37,Agnieszka,1
5c4f5,5c4f5_session2_listb_naming_trial114_broom.wav,2,b,naming,114,broom,955,correct,NA,Feb  2 2023 15:42:46,Agnieszka,1
5c4f5,5c4f5_session2_listb_naming_trial115_calendar.wav,2,b,naming,115,calendar,1289,correct,NA,Feb  2 2023 15:42:55,Agnieszka,1
5c4f5,5c4f5_session2_listb_naming_trial116_spider.wav,2,b,naming,116,spider,875,correct,NA,Feb  2 2023 15:43:05,Agnieszka,1
5c4f5,5c4f5_session2_listb_naming_trial117_snail.wav,2,b,naming,117,snail,791,correct,NA,Feb  2 2023 15:43:14,Agnieszka,1
5c4f5,5c4f5_session2_listb_naming_trial118_desert.wav,2,b,naming,118,desert,1018,correct,NA,Feb  2 2023 15:43:24,Agnieszka,1
5c4f5,5c4f5_session2_listb_naming_trial119_mask.wav,2,b,naming,119,mask,1126,correct,NA,Feb  2 2023 15:43:31,Agnieszka,1
5c4f5,5c4f5_session2_listb_naming_trial120_shirt.wav,2,b,naming,120,shirt,926,correct,NA,Feb  2 2023 15:43:38,Agnieszka,1
5c4f5,5c4f5_session2_listb_naming_trial121_handle.wav,2,b,naming,121,handle,993,correct,NA,Feb  2 2023 15:43:46,Agnieszka,1
5c4f5,5c4f5_session2_listb_naming_trial122_heart.wav,2,b,naming,122,heart,993,correct,NA,Feb  2 2023 15:43:53,Agnieszka,1
5c4f5,5c4f5_session2_listb_naming_trial123_banana.wav,2,b,naming,123,banana,1098,correct,NA,Feb  2 2023 15:44:00,Agnieszka,1
5c4f5,5c4f5_session2_listb_naming_trial124_diamond.wav,2,b,naming,124,diamond,967,correct,NA,Feb  2 2023 15:44:09,Agnieszka,1
5c4f5,5c4f5_session2_listb_naming_trial125_harp.wav,2,b,naming,125,harp,945,correct,NA,Feb  2 2023 15:44:16,Agnieszka,1
5c4f5,5c4f5_session2_listb_naming_trial126_shadow.wav,2,b,naming,126,shadow,1012,correct,NA,Feb  2 2023 15:44:27,Agnieszka,1
5c4f5,5c4f5_session2_listb_naming_trial127_coconut.wav,2,b,naming,127,coconut,1040,correct,NA,Feb  2 2023 15:44:35,Agnieszka,1
5c4f5,5c4f5_session2_listb_naming_trial128_skull.wav,2,b,naming,128,skull,-1,wrong_word,NA,Feb  2 2023 15:44:42,Agnieszka,1
5c4f5,5c4f5_session2_listb_naming_trial129_bra.wav,2,b,naming,129,bra,1551,correct,NA,Feb  2 2023 15:44:50,Agnieszka,1
5c4f5,5c4f5_session2_listb_naming_trial130_leaf.wav,2,b,naming,130,leaf,1218,correct,NA,Feb  2 2023 15:45:00,Agnieszka,1
5c4f5,5c4f5_session2_listb_naming_trial131_giraffe.wav,2,b,naming,131,giraffe,1129,correct,NA,Feb  2 2023 15:45:10,Agnieszka,1
5c4f5,5c4f5_session2_listb_naming_trial132_glass.wav,2,b,naming,132,glass,1299,correct,NA,Feb  2 2023 15:45:18,Agnieszka,1
5c4f5,5c4f5_session2_listb_naming_trial133_penguin.wav,2,b,naming,133,penguin,1239,correct,NA,Feb  2 2023 15:45:25,Agnieszka,1
5c4f5,5c4f5_session2_listb_naming_trial134_egg.wav,2,b,naming,134,egg,1561,correct,NA,Feb  2 2023 15:45:33,Agnieszka,1
5c4f5,5c4f5_session2_listb_naming_trial135_hedgehog.wav,2,b,naming,135,hedgehog,1009,correct,NA,Feb  2 2023 15:45:40,Agnieszka,1
5c4f5,5c4f5_session2_listb_naming_trial136_girl.wav,2,b,naming,136,girl,1015,correct,NA,Feb  2 2023 15:45:48,Agnieszka,1
5c4f5,5c4f5_session2_listb_naming_trial137_screwdriver.wav,2,b,naming,137,screwdriver,939,correct,NA,Feb  2 2023 15:45:57,Agnieszka,1
5c4f5,5c4f5_session2_listb_naming_trial138_dentist.wav,2,b,naming,138,dentist,1136,correct,NA,Feb  2 2023 15:46:10,Agnieszka,1
5c4f5,5c4f5_session2_listb_naming_trial139_gun.wav,2,b,naming,139,gun,1065,correct,NA,Feb  2 2023 15:46:18,Agnieszka,1
5c4f5,5c4f5_session2_listb_naming_trial140_frog.wav,2,b,naming,140,frog,1088,correct,NA,Feb  2 2023 15:46:28,Agnieszka,1
5c4f5,5c4f5_session2_listb_naming_trial141_button.wav,2,b,naming,141,button,1053,correct,NA,Feb  2 2023 15:46:35,Agnieszka,1
5c4f5,5c4f5_session2_listb_naming_trial142_scarf.wav,2,b,naming,142,scarf,1084,correct,NA,Feb  2 2023 15:46:43,Agnieszka,1
5c4f5,5c4f5_session2_listb_naming_trial143_dinosaur.wav,2,b,naming,143,dinosaur,1132,correct,NA,Feb  2 2023 15:46:51,Agnieszka,1
5c4f5,5c4f5_session2_listb_naming_trial144_apron.wav,2,b,naming,144,apron,1223,correct,NA,Feb  2 2023 15:47:00,Agnieszka,1
5c4f5,5c4f5_session2_listb_naming_trial145_football.wav,2,b,naming,145,football,753,correct,NA,Feb  2 2023 15:47:09,Agnieszka,1
5c4f5,5c4f5_session2_listb_naming_trial146_waiter.wav,2,b,naming,146,waiter,1113,correct,NA,Feb  2 2023 15:47:17,Agnieszka,1
5c4f5,5c4f5_session2_listb_naming_trial147_needle.wav,2,b,naming,147,needle,1068,correct,NA,Feb  2 2023 15:47:25,Agnieszka,1
5c4f5,5c4f5_session2_listb_naming_trial148_pizza.wav,2,b,naming,148,pizza,844,correct,NA,Feb  2 2023 15:47:35,Agnieszka,1
5c4f5,5c4f5_session2_listb_naming_trial149_baby.wav,2,b,naming,149,baby,1044,correct,NA,Feb  2 2023 15:47:42,Agnieszka,1
5c4f5,5c4f5_session2_listb_naming_trial150_thermometer.wav,2,b,naming,150,thermometer,1021,correct,NA,Feb  2 2023 15:47:58,Agnieszka,1
