Participant_ID,File_Name,Session,List,Type_Trial,Trial_Nbr,Target,RT,Response_Trial,Comment,Date_Correction,Assessor_Name,Processed
60cfd,60cfd_session2_listb_speeded_trial001_bible.wav,2,b,peeded,1,bible,798,correct,NA,Apr  4 2023 11:30:37,Agnieszka,1
60cfd,60cfd_session2_listb_speeded_trial002_ring.wav,2,b,peeded,2,ring,756,correct,NA,Apr  4 2023 11:30:47,Agnieszka,1
60cfd,60cfd_session2_listb_speeded_trial003_trumpet.wav,2,b,peeded,3,trumpet,702,correct,NA,Apr  4 2023 11:30:56,Agnieszka,1
60cfd,60cfd_session2_listb_speeded_trial004_waiter.wav,2,b,peeded,4,waiter,901,correct,NA,Apr  4 2023 11:31:02,Agnieszka,1
60cfd,60cfd_session2_listb_speeded_trial005_house.wav,2,b,peeded,5,house,695,correct,NA,Apr  4 2023 11:31:11,Agnieszka,1
60cfd,60cfd_session2_listb_speeded_trial006_camera.wav,2,b,peeded,6,camera,888,correct,NA,Apr  4 2023 11:31:18,Agnieszka,1
60cfd,60cfd_session2_listb_speeded_trial007_desert.wav,2,b,peeded,7,desert,822,correct,NA,Apr  4 2023 11:31:24,Agnieszka,1
60cfd,60cfd_session2_listb_speeded_trial008_fan.wav,2,b,peeded,8,fan,756,correct,NA,Apr  4 2023 11:31:33,Agnieszka,1
60cfd,60cfd_session2_listb_speeded_trial009_coconut.wav,2,b,peeded,9,coconut,759,correct,NA,Apr  4 2023 11:31:53,Agnieszka,1
60cfd,60cfd_session2_listb_speeded_trial010_volcano.wav,2,b,peeded,10,volcano,829,correct,NA,Apr  4 2023 11:31:59,Agnieszka,1
60cfd,60cfd_session2_listb_speeded_trial011_coffee.wav,2,b,peeded,11,coffee,1056,correct,NA,Apr  4 2023 11:32:06,Agnieszka,1
60cfd,60cfd_session2_listb_speeded_trial012_dentist.wav,2,b,peeded,12,dentist,-1,no_resp,NA,Apr  4 2023 11:32:11,Agnieszka,1
60cfd,60cfd_session2_listb_speeded_trial013_earring.wav,2,b,peeded,13,earring,923,correct,NA,Apr  4 2023 11:32:17,Agnieszka,1
60cfd,60cfd_session2_listb_speeded_trial014_stapler.wav,2,b,peeded,14,stapler,729,correct,NA,Apr  4 2023 11:32:25,Agnieszka,1
60cfd,60cfd_session2_listb_speeded_trial015_vein.wav,2,b,peeded,15,vein,1044,correct,NA,Apr  4 2023 11:32:39,Agnieszka,1
60cfd,60cfd_session2_listb_speeded_trial016_scarecrow.wav,2,b,peeded,16,scarecrow,748,correct,NA,Apr  4 2023 11:32:46,Agnieszka,1
60cfd,60cfd_session2_listb_speeded_trial017_greenhouse.wav,2,b,peeded,17,greenhouse,1031,correct,slightly cut off,Apr  4 2023 11:32:58,Agnieszka,1
60cfd,60cfd_session2_listb_speeded_trial018_torch.wav,2,b,peeded,18,torch,945,correct,NA,Apr  4 2023 11:33:04,Agnieszka,1
60cfd,60cfd_session2_listb_speeded_trial019_bedroom.wav,2,b,peeded,19,bedroom,898,correct,NA,Apr  4 2023 11:33:10,Agnieszka,1
60cfd,60cfd_session2_listb_speeded_trial020_airport.wav,2,b,peeded,20,airport,832,correct,NA,Apr  4 2023 11:33:16,Agnieszka,1
60cfd,60cfd_session2_listb_speeded_trial021_face.wav,2,b,peeded,21,face,731,correct,NA,Apr  4 2023 11:33:22,Agnieszka,1
60cfd,60cfd_session2_listb_speeded_trial022_boomerang.wav,2,b,peeded,22,boomerang,849,correct,NA,Apr  4 2023 11:33:28,Agnieszka,1
60cfd,60cfd_session2_listb_speeded_trial023_needle.wav,2,b,peeded,23,needle,989,correct,NA,Apr  4 2023 11:33:36,Agnieszka,1
60cfd,60cfd_session2_listb_speeded_trial024_beard.wav,2,b,peeded,24,beard,896,correct,NA,Apr  4 2023 11:33:44,Agnieszka,1
60cfd,60cfd_session2_listb_speeded_trial025_fist.wav,2,b,peeded,25,fist,815,correct,NA,Apr  4 2023 11:33:50,Agnieszka,1
60cfd,60cfd_session2_listb_speeded_trial026_bat.wav,2,b,peeded,26,bat,859,correct,NA,Apr  4 2023 11:33:58,Agnieszka,1
60cfd,60cfd_session2_listb_speeded_trial027_shark.wav,2,b,peeded,27,shark,729,correct,NA,Apr  4 2023 11:34:04,Agnieszka,1
60cfd,60cfd_session2_listb_speeded_trial028_cactus.wav,2,b,peeded,28,cactus,788,correct,NA,Apr  4 2023 11:34:12,Agnieszka,1
60cfd,60cfd_session2_listb_speeded_trial029_girl.wav,2,b,peeded,29,girl,877,correct,NA,Apr  4 2023 11:34:21,Agnieszka,1
60cfd,60cfd_session2_listb_speeded_trial030_telephone.wav,2,b,peeded,30,telephone,837,correct,NA,Apr  4 2023 11:34:30,Agnieszka,1
60cfd,60cfd_session2_listb_speeded_trial031_well.wav,2,b,peeded,31,well,798,correct,NA,Apr  4 2023 11:34:36,Agnieszka,1
60cfd,60cfd_session2_listb_speeded_trial032_cloud.wav,2,b,peeded,32,cloud,861,correct,NA,Apr  4 2023 11:34:49,Agnieszka,1
60cfd,60cfd_session2_listb_speeded_trial033_broom.wav,2,b,peeded,33,broom,904,correct,NA,Apr  4 2023 11:34:56,Agnieszka,1
60cfd,60cfd_session2_listb_speeded_trial034_parachute.wav,2,b,peeded,34,parachute,-1,no_resp,NA,Apr  4 2023 11:35:01,Agnieszka,1
60cfd,60cfd_session2_listb_speeded_trial035_scorpion.wav,2,b,peeded,35,scorpion,716,correct,NA,Apr  4 2023 11:35:07,Agnieszka,1
60cfd,60cfd_session2_listb_speeded_trial036_chain.wav,2,b,peeded,36,chain,883,correct,NA,Apr  4 2023 11:35:13,Agnieszka,1
60cfd,60cfd_session2_listb_speeded_trial037_cone.wav,2,b,peeded,37,cone,974,correct,NA,Apr  4 2023 11:35:20,Agnieszka,1
60cfd,60cfd_session2_listb_speeded_trial038_condom.wav,2,b,peeded,38,condom,871,correct,NA,Apr  4 2023 11:35:26,Agnieszka,1
60cfd,60cfd_session2_listb_speeded_trial039_crown.wav,2,b,peeded,39,crown,888,correct,NA,Apr  4 2023 11:35:38,Agnieszka,1
60cfd,60cfd_session2_listb_speeded_trial040_penguin.wav,2,b,peeded,40,penguin,768,correct,NA,Apr  4 2023 11:35:46,Agnieszka,1
60cfd,60cfd_session2_listb_speeded_trial041_pirate.wav,2,b,peeded,41,pirate,857,correct,NA,Apr  4 2023 11:35:54,Agnieszka,1
60cfd,60cfd_session2_listb_speeded_trial042_hand.wav,2,b,peeded,42,hand,690,correct,NA,Apr  4 2023 11:36:01,Agnieszka,1
60cfd,60cfd_session2_listb_speeded_trial043_pizza.wav,2,b,peeded,43,pizza,776,correct,NA,Apr  4 2023 11:36:06,Agnieszka,1
60cfd,60cfd_session2_listb_speeded_trial044_honey.wav,2,b,peeded,44,honey,830,correct,NA,Apr  4 2023 11:36:19,Agnieszka,1
60cfd,60cfd_session2_listb_speeded_trial045_eye.wav,2,b,peeded,45,eye,727,correct,NA,Apr  4 2023 11:36:30,Agnieszka,1
60cfd,60cfd_session2_listb_speeded_trial046_moustache.wav,2,b,peeded,46,moustache,727,correct,NA,Apr  4 2023 11:36:37,Agnieszka,1
60cfd,60cfd_session2_listb_speeded_trial047_snail.wav,2,b,peeded,47,snail,768,correct,NA,Apr  4 2023 11:36:43,Agnieszka,1
60cfd,60cfd_session2_listb_speeded_trial048_fire.wav,2,b,peeded,48,fire,1097,correct,NA,Apr  4 2023 11:36:48,Agnieszka,1
60cfd,60cfd_session2_listb_speeded_trial049_ankle.wav,2,b,peeded,49,ankle,989,correct,NA,Apr  4 2023 11:36:56,Agnieszka,1
60cfd,60cfd_session2_listb_speeded_trial050_lemon.wav,2,b,peeded,50,lemon,861,correct,NA,Apr  4 2023 11:37:02,Agnieszka,1
60cfd,60cfd_session2_listb_speeded_trial051_maze.wav,2,b,peeded,51,maze,827,correct,NA,Apr  4 2023 11:37:08,Agnieszka,1
60cfd,60cfd_session2_listb_speeded_trial052_ambulance.wav,2,b,peeded,52,ambulance,839,correct,NA,Apr  4 2023 11:37:14,Agnieszka,1
60cfd,60cfd_session2_listb_speeded_trial053_parrot.wav,2,b,peeded,53,parrot,758,correct,NA,Apr  4 2023 11:37:24,Agnieszka,1
60cfd,60cfd_session2_listb_speeded_trial054_shirt.wav,2,b,peeded,54,shirt,810,correct,NA,Apr  4 2023 11:37:29,Agnieszka,1
60cfd,60cfd_session2_listb_speeded_trial055_thermometer.wav,2,b,peeded,55,thermometer,948,correct,NA,Apr  4 2023 11:37:42,Agnieszka,1
60cfd,60cfd_session2_listb_speeded_trial056_choir.wav,2,b,peeded,56,choir,967,correct,NA,Apr  4 2023 11:37:47,Agnieszka,1
60cfd,60cfd_session2_listb_speeded_trial057_printer.wav,2,b,peeded,57,printer,1409,correct,cut off,Apr  4 2023 11:38:07,Agnieszka,1
60cfd,60cfd_session2_listb_speeded_trial058_road.wav,2,b,peeded,58,road,1166,correct,NA,Apr  4 2023 11:38:14,Agnieszka,1
60cfd,60cfd_session2_listb_speeded_trial059_keyboard.wav,2,b,peeded,59,keyboard,1024,correct,NA,Apr  4 2023 11:38:22,Agnieszka,1
60cfd,60cfd_session2_listb_speeded_trial060_caravan.wav,2,b,peeded,60,caravan,864,correct,NA,Apr  4 2023 11:38:33,Agnieszka,1
60cfd,60cfd_session2_listb_speeded_trial061_nurse.wav,2,b,peeded,61,nurse,849,correct,NA,Apr  4 2023 11:38:39,Agnieszka,1
60cfd,60cfd_session2_listb_speeded_trial062_swimming.wav,2,b,peeded,62,swimming,785,correct,NA,Apr  4 2023 11:38:45,Agnieszka,1
60cfd,60cfd_session2_listb_speeded_trial063_heart.wav,2,b,peeded,63,heart,756,correct,NA,Apr  4 2023 11:38:52,Agnieszka,1
60cfd,60cfd_session2_listb_speeded_trial064_iron.wav,2,b,peeded,64,iron,-1,no_resp,most of it cut off,Apr  4 2023 11:39:11,Agnieszka,1
60cfd,60cfd_session2_listb_speeded_trial065_glass.wav,2,b,peeded,65,glass,866,correct,NA,Apr  4 2023 11:39:17,Agnieszka,1
60cfd,60cfd_session2_listb_speeded_trial066_dog.wav,2,b,peeded,66,dog,766,correct,NA,Apr  4 2023 11:39:26,Agnieszka,1
60cfd,60cfd_session2_listb_speeded_trial067_skull.wav,2,b,peeded,67,skull,640,correct,NA,Apr  4 2023 11:39:32,Agnieszka,1
60cfd,60cfd_session2_listb_speeded_trial068_giraffe.wav,2,b,peeded,68,giraffe,783,correct,NA,Apr  4 2023 11:39:39,Agnieszka,1
60cfd,60cfd_session2_listb_speeded_trial069_baby.wav,2,b,peeded,69,baby,775,correct,NA,Apr  4 2023 11:39:49,Agnieszka,1
60cfd,60cfd_session2_listb_speeded_trial070_cage.wav,2,b,peeded,70,cage,-1,disfluency,NA,Apr  4 2023 11:39:55,Agnieszka,1
60cfd,60cfd_session2_listb_speeded_trial071_car.wav,2,b,peeded,71,car,876,correct,NA,Apr  4 2023 11:40:00,Agnieszka,1
60cfd,60cfd_session2_listb_speeded_trial072_lab.wav,2,b,peeded,72,lab,920,correct,NA,Apr  4 2023 11:40:06,Agnieszka,1
60cfd,60cfd_session2_listb_speeded_trial073_microphone.wav,2,b,peeded,73,microphone,832,correct,NA,Apr  4 2023 11:40:12,Agnieszka,1
60cfd,60cfd_session2_listb_speeded_trial074_diamond.wav,2,b,peeded,74,diamond,810,correct,NA,Apr  4 2023 11:40:17,Agnieszka,1
60cfd,60cfd_session2_listb_speeded_trial075_witch.wav,2,b,peeded,75,witch,786,correct,NA,Apr  4 2023 11:40:22,Agnieszka,1
60cfd,60cfd_session2_listb_speeded_trial076_pumpkin.wav,2,b,peeded,76,pumpkin,795,correct,NA,Apr  4 2023 11:40:30,Agnieszka,1
60cfd,60cfd_session2_listb_speeded_trial077_mask.wav,2,b,peeded,77,mask,830,correct,NA,Apr  4 2023 11:40:36,Agnieszka,1
60cfd,60cfd_session2_listb_speeded_trial078_nose.wav,2,b,peeded,78,nose,783,correct,NA,Apr  4 2023 11:40:42,Agnieszka,1
60cfd,60cfd_session2_listb_speeded_trial079_pilot.wav,2,b,peeded,79,pilot,-1,no_resp,NA,Apr  4 2023 11:40:48,Agnieszka,1
60cfd,60cfd_session2_listb_speeded_trial080_roof.wav,2,b,peeded,80,roof,1206,correct,NA,Apr  4 2023 11:40:54,Agnieszka,1
60cfd,60cfd_session2_listb_speeded_trial081_cannon.wav,2,b,peeded,81,cannon,850,correct,NA,Apr  4 2023 11:41:02,Agnieszka,1
60cfd,60cfd_session2_listb_speeded_trial082_handle.wav,2,b,peeded,82,handle,-1,no_resp,most of the word is cut off,Apr  4 2023 11:41:30,Agnieszka,1
60cfd,60cfd_session2_listb_speeded_trial083_skeleton.wav,2,b,peeded,83,skeleton,-1,disfluency,NA,Apr  4 2023 11:41:38,Agnieszka,1
60cfd,60cfd_session2_listb_speeded_trial084_cowboy.wav,2,b,peeded,84,cowboy,1270,correct,slightly cut off,Apr  4 2023 11:41:51,Agnieszka,1
60cfd,60cfd_session2_listb_speeded_trial085_door.wav,2,b,peeded,85,door,798,correct,NA,Apr  4 2023 11:41:57,Agnieszka,1
60cfd,60cfd_session2_listb_speeded_trial086_guitar.wav,2,b,peeded,86,guitar,857,correct,NA,Apr  4 2023 11:42:03,Agnieszka,1
60cfd,60cfd_session2_listb_speeded_trial087_elephant.wav,2,b,peeded,87,elephant,1164,correct,slightly cut off,Apr  4 2023 11:42:12,Agnieszka,1
60cfd,60cfd_session2_listb_speeded_trial088_gun.wav,2,b,peeded,88,gun,722,correct,NA,Apr  4 2023 11:42:21,Agnieszka,1
60cfd,60cfd_session2_listb_speeded_trial089_foot.wav,2,b,peeded,89,foot,756,correct,NA,Apr  4 2023 11:42:29,Agnieszka,1
60cfd,60cfd_session2_listb_speeded_trial090_bra.wav,2,b,peeded,90,bra,668,correct,NA,Apr  4 2023 11:42:44,Agnieszka,1
60cfd,60cfd_session2_listb_speeded_trial091_nun.wav,2,b,peeded,91,nun,920,correct,NA,Apr  4 2023 11:42:51,Agnieszka,1
60cfd,60cfd_session2_listb_speeded_trial092_leaf.wav,2,b,peeded,92,leaf,898,correct,NA,Apr  4 2023 11:42:57,Agnieszka,1
60cfd,60cfd_session2_listb_speeded_trial093_shadow.wav,2,b,peeded,93,shadow,987,correct,NA,Apr  4 2023 11:43:04,Agnieszka,1
60cfd,60cfd_session2_listb_speeded_trial094_tank.wav,2,b,peeded,94,tank,1065,correct,NA,Apr  4 2023 11:43:09,Agnieszka,1
60cfd,60cfd_session2_listb_speeded_trial095_frog.wav,2,b,peeded,95,frog,702,correct,NA,Apr  4 2023 11:43:23,Agnieszka,1
60cfd,60cfd_session2_listb_speeded_trial096_bin.wav,2,b,peeded,96,bin,857,correct,NA,Apr  4 2023 11:43:34,Agnieszka,1
60cfd,60cfd_session2_listb_speeded_trial097_knee.wav,2,b,peeded,97,knee,1066,correct,NA,Apr  4 2023 11:43:42,Agnieszka,1
60cfd,60cfd_session2_listb_speeded_trial098_feather.wav,2,b,peeded,98,feather,818,correct,NA,Apr  4 2023 11:43:49,Agnieszka,1
60cfd,60cfd_session2_listb_speeded_trial099_jar.wav,2,b,peeded,99,jar,830,correct,NA,Apr  4 2023 11:43:54,Agnieszka,1
60cfd,60cfd_session2_listb_speeded_trial100_calculator.wav,2,b,peeded,100,calculator,943,correct,NA,Apr  4 2023 11:44:13,Agnieszka,1
60cfd,60cfd_session2_listb_speeded_trial101_spider.wav,2,b,peeded,101,spider,808,correct,NA,Apr  4 2023 11:44:23,Agnieszka,1
60cfd,60cfd_session2_listb_speeded_trial102_wallet.wav,2,b,peeded,102,wallet,-1,no_resp,cut off,Apr  4 2023 11:44:40,Agnieszka,1
60cfd,60cfd_session2_listb_speeded_trial103_mirror.wav,2,b,peeded,103,mirror,857,correct,NA,Apr  4 2023 11:44:47,Agnieszka,1
60cfd,60cfd_session2_listb_speeded_trial104_brain.wav,2,b,peeded,104,brain,967,correct,NA,Apr  4 2023 11:44:55,Agnieszka,1
60cfd,60cfd_session2_listb_speeded_trial105_belt.wav,2,b,peeded,105,belt,802,correct,NA,Apr  4 2023 11:45:01,Agnieszka,1
60cfd,60cfd_session2_listb_speeded_trial106_bed.wav,2,b,peeded,106,bed,810,correct,NA,Apr  4 2023 11:45:06,Agnieszka,1
60cfd,60cfd_session2_listb_speeded_trial107_glasses.wav,2,b,peeded,107,glasses,866,correct,NA,Apr  4 2023 11:45:15,Agnieszka,1
60cfd,60cfd_session2_listb_speeded_trial108_asparagus.wav,2,b,peeded,108,asparagus,1016,correct,slightly cut off,Apr  4 2023 11:45:25,Agnieszka,1
60cfd,60cfd_session2_listb_speeded_trial109_screwdriver.wav,2,b,peeded,109,screwdriver,-1,uncertain,"prolonged initial s, also cut off",Apr  4 2023 11:45:48,Agnieszka,1
60cfd,60cfd_session2_listb_speeded_trial110_football.wav,2,b,peeded,110,football,928,correct,NA,Apr  4 2023 11:45:59,Agnieszka,1
60cfd,60cfd_session2_listb_speeded_trial111_devil.wav,2,b,peeded,111,devil,771,correct,NA,Apr  4 2023 11:46:09,Agnieszka,1
60cfd,60cfd_session2_listb_speeded_trial112_duck.wav,2,b,peeded,112,duck,965,correct,NA,Apr  4 2023 11:46:16,Agnieszka,1
60cfd,60cfd_session2_listb_speeded_trial113_fruit.wav,2,b,peeded,113,fruit,886,correct,NA,Apr  4 2023 11:46:22,Agnieszka,1
60cfd,60cfd_session2_listb_speeded_trial114_man.wav,2,b,peeded,114,man,1232,correct,NA,Apr  4 2023 11:46:28,Agnieszka,1
60cfd,60cfd_session2_listb_speeded_trial115_scarf.wav,2,b,peeded,115,scarf,883,correct,NA,Apr  4 2023 11:46:37,Agnieszka,1
60cfd,60cfd_session2_listb_speeded_trial116_sink.wav,2,b,peeded,116,sink,835,correct,NA,Apr  4 2023 11:46:44,Agnieszka,1
60cfd,60cfd_session2_listb_speeded_trial117_sheep.wav,2,b,peeded,117,sheep,719,correct,NA,Apr  4 2023 11:46:57,Agnieszka,1
60cfd,60cfd_session2_listb_speeded_trial118_hedgehog.wav,2,b,peeded,118,hedgehog,729,correct,NA,Apr  4 2023 11:47:20,Agnieszka,1
60cfd,60cfd_session2_listb_speeded_trial119_balloon.wav,2,b,peeded,119,balloon,727,correct,NA,Apr  4 2023 11:47:29,Agnieszka,1
60cfd,60cfd_session2_listb_speeded_trial120_finger.wav,2,b,peeded,120,finger,741,correct,NA,Apr  4 2023 11:47:37,Agnieszka,1
60cfd,60cfd_session2_listb_speeded_trial121_king.wav,2,b,peeded,121,king,1022,correct,NA,Apr  4 2023 11:47:48,Agnieszka,1
60cfd,60cfd_session2_listb_speeded_trial122_dinosaur.wav,2,b,peeded,122,dinosaur,908,correct,NA,Apr  4 2023 11:47:56,Agnieszka,1
60cfd,60cfd_session2_listb_speeded_trial123_back.wav,2,b,peeded,123,back,802,correct,NA,Apr  4 2023 11:48:02,Agnieszka,1
60cfd,60cfd_session2_listb_speeded_trial124_spoon.wav,2,b,peeded,124,spoon,818,correct,NA,Apr  4 2023 11:48:15,Agnieszka,1
60cfd,60cfd_session2_listb_speeded_trial125_farm.wav,2,b,peeded,125,farm,958,correct,NA,Apr  4 2023 11:48:21,Agnieszka,1
60cfd,60cfd_session2_listb_speeded_trial126_lizard.wav,2,b,peeded,126,lizard,1292,correct,slightly cut off,Apr  4 2023 11:48:30,Agnieszka,1
60cfd,60cfd_session2_listb_speeded_trial127_apron.wav,2,b,peeded,127,apron,1046,correct,NA,Apr  4 2023 11:48:38,Agnieszka,1
60cfd,60cfd_session2_listb_speeded_trial128_lion.wav,2,b,peeded,128,lion,827,correct,NA,Apr  4 2023 11:48:44,Agnieszka,1
60cfd,60cfd_session2_listb_speeded_trial129_butcher.wav,2,b,peeded,129,butcher,1081,correct,NA,Apr  4 2023 11:48:53,Agnieszka,1
60cfd,60cfd_session2_listb_speeded_trial130_banana.wav,2,b,peeded,130,banana,778,correct,NA,Apr  4 2023 11:49:13,Agnieszka,1
60cfd,60cfd_session2_listb_speeded_trial131_sock.wav,2,b,peeded,131,sock,756,correct,NA,Apr  4 2023 11:49:21,Agnieszka,1
60cfd,60cfd_session2_listb_speeded_trial132_chair.wav,2,b,peeded,132,chair,974,correct,NA,Apr  4 2023 11:49:27,Agnieszka,1
60cfd,60cfd_session2_listb_speeded_trial133_umbrella.wav,2,b,peeded,133,umbrella,810,correct,NA,Apr  4 2023 11:49:38,Agnieszka,1
60cfd,60cfd_session2_listb_speeded_trial134_skateboard.wav,2,b,peeded,134,skateboard,-1,no_resp,cut off after s,Apr  4 2023 11:49:52,Agnieszka,1
60cfd,60cfd_session2_listb_speeded_trial135_tooth.wav,2,b,peeded,135,tooth,869,correct,starts with last phoneme of previous word,Apr  4 2023 11:50:45,Agnieszka,1
60cfd,60cfd_session2_listb_speeded_trial136_coffin.wav,2,b,peeded,136,coffin,861,correct,NA,Apr  4 2023 11:50:50,Agnieszka,1
60cfd,60cfd_session2_listb_speeded_trial137_television.wav,2,b,peeded,137,television,-1,wrong_word,also cut off,Apr  4 2023 11:51:00,Agnieszka,1
60cfd,60cfd_session2_listb_speeded_trial138_broccoli.wav,2,b,peeded,138,broccoli,-1,no_resp,NA,Apr  4 2023 11:51:08,Agnieszka,1
60cfd,60cfd_session2_listb_speeded_trial139_strawberry.wav,2,b,peeded,139,strawberry,845,correct,NA,Apr  4 2023 11:51:23,Agnieszka,1
60cfd,60cfd_session2_listb_speeded_trial140_calendar.wav,2,b,peeded,140,calendar,1216,correct,last syllable cut off,Apr  4 2023 11:51:34,Agnieszka,1
60cfd,60cfd_session2_listb_speeded_trial141_hair.wav,2,b,peeded,141,hair,719,correct,NA,Apr  4 2023 11:51:40,Agnieszka,1
60cfd,60cfd_session2_listb_speeded_trial142_harp.wav,2,b,peeded,142,harp,748,correct,NA,Apr  4 2023 11:51:47,Agnieszka,1
60cfd,60cfd_session2_listb_speeded_trial143_watch.wav,2,b,peeded,143,watch,788,correct,NA,Apr  4 2023 11:51:57,Agnieszka,1
60cfd,60cfd_session2_listb_speeded_trial144_dolphin.wav,2,b,peeded,144,dolphin,891,correct,NA,Apr  4 2023 11:52:10,Agnieszka,1
60cfd,60cfd_session2_listb_speeded_trial145_egg.wav,2,b,peeded,145,egg,795,correct,NA,Apr  4 2023 11:52:16,Agnieszka,1
60cfd,60cfd_session2_listb_speeded_trial146_dragon.wav,2,b,peeded,146,dragon,857,correct,NA,Apr  4 2023 11:52:21,Agnieszka,1
60cfd,60cfd_session2_listb_speeded_trial147_cigarette.wav,2,b,peeded,147,cigarette,-1,no_resp,NA,Apr  4 2023 11:52:26,Agnieszka,1
60cfd,60cfd_session2_listb_speeded_trial148_pool.wav,2,b,peeded,148,pool,-1,uncertain,starts with the previous word ,Apr  4 2023 11:52:43,Agnieszka,1
60cfd,60cfd_session2_listb_speeded_trial149_burger.wav,2,b,peeded,149,burger,915,correct,NA,Apr  4 2023 11:52:50,Agnieszka,1
60cfd,60cfd_session2_listb_speeded_trial150_button.wav,2,b,peeded,150,button,844,correct,NA,Apr  4 2023 11:52:56,Agnieszka,1
