Participant_ID,File_Name,Session,List,Type_Trial,Trial_Nbr,Target,RT,Response_Trial,Comment,Date_Correction,Assessor_Name,Processed
638b6,638b6_session2_listb_speeded_trial001_needle.wav,2,b,peeded,1,needle,1341,correct,cut off,Mar 27 2023 17:48:39,Agnieszka,1
638b6,638b6_session2_listb_speeded_trial002_chain.wav,2,b,peeded,2,chain,786,correct,NA,Mar 27 2023 17:48:47,Agnieszka,1
638b6,638b6_session2_listb_speeded_trial003_banana.wav,2,b,peeded,3,banana,665,correct,NA,Mar 27 2023 17:48:57,Agnieszka,1
638b6,638b6_session2_listb_speeded_trial004_knee.wav,2,b,peeded,4,knee,1242,correct,NA,Mar 27 2023 17:49:02,Agnieszka,1
638b6,638b6_session2_listb_speeded_trial005_cone.wav,2,b,peeded,5,cone,751,correct,NA,Mar 27 2023 17:49:08,Agnieszka,1
638b6,638b6_session2_listb_speeded_trial006_fist.wav,2,b,peeded,6,fist,719,correct,NA,Mar 27 2023 17:49:19,Agnieszka,1
638b6,638b6_session2_listb_speeded_trial007_screwdriver.wav,2,b,peeded,7,screwdriver,823,correct,NA,Mar 27 2023 17:49:28,Agnieszka,1
638b6,638b6_session2_listb_speeded_trial008_greenhouse.wav,2,b,peeded,8,greenhouse,1193,correct,cut off,Mar 27 2023 17:49:37,Agnieszka,1
638b6,638b6_session2_listb_speeded_trial009_dolphin.wav,2,b,peeded,9,dolphin,748,correct,NA,Mar 27 2023 17:49:43,Agnieszka,1
638b6,638b6_session2_listb_speeded_trial010_mirror.wav,2,b,peeded,10,mirror,721,correct,NA,Mar 27 2023 17:49:49,Agnieszka,1
638b6,638b6_session2_listb_speeded_trial011_fire.wav,2,b,peeded,11,fire,771,correct,NA,Mar 27 2023 17:49:57,Agnieszka,1
638b6,638b6_session2_listb_speeded_trial012_witch.wav,2,b,peeded,12,witch,700,correct,NA,Mar 27 2023 17:50:03,Agnieszka,1
638b6,638b6_session2_listb_speeded_trial013_honey.wav,2,b,peeded,13,honey,785,correct,NA,Mar 27 2023 17:50:10,Agnieszka,1
638b6,638b6_session2_listb_speeded_trial014_skateboard.wav,2,b,peeded,14,skateboard,673,correct,NA,Mar 27 2023 17:50:16,Agnieszka,1
638b6,638b6_session2_listb_speeded_trial015_bedroom.wav,2,b,peeded,15,bedroom,911,correct,NA,Mar 27 2023 17:50:22,Agnieszka,1
638b6,638b6_session2_listb_speeded_trial016_handle.wav,2,b,peeded,16,handle,-1,disfluency,NA,Mar 27 2023 17:50:27,Agnieszka,1
638b6,638b6_session2_listb_speeded_trial017_crown.wav,2,b,peeded,17,crown,790,correct,NA,Mar 27 2023 17:50:35,Agnieszka,1
638b6,638b6_session2_listb_speeded_trial018_dentist.wav,2,b,peeded,18,dentist,994,correct,cut off,Mar 27 2023 17:50:42,Agnieszka,1
638b6,638b6_session2_listb_speeded_trial019_parrot.wav,2,b,peeded,19,parrot,690,correct,NA,Mar 27 2023 17:50:55,Agnieszka,1
638b6,638b6_session2_listb_speeded_trial020_microphone.wav,2,b,peeded,20,microphone,731,correct,NA,Mar 27 2023 17:51:03,Agnieszka,1
638b6,638b6_session2_listb_speeded_trial021_boomerang.wav,2,b,peeded,21,boomerang,786,correct,NA,Mar 27 2023 17:51:08,Agnieszka,1
638b6,638b6_session2_listb_speeded_trial022_frog.wav,2,b,peeded,22,frog,773,correct,NA,Mar 27 2023 17:51:22,Agnieszka,1
638b6,638b6_session2_listb_speeded_trial023_condom.wav,2,b,peeded,23,condom,808,correct,NA,Mar 27 2023 17:51:29,Agnieszka,1
638b6,638b6_session2_listb_speeded_trial024_elephant.wav,2,b,peeded,24,elephant,722,correct,NA,Mar 27 2023 17:51:42,Agnieszka,1
638b6,638b6_session2_listb_speeded_trial025_nurse.wav,2,b,peeded,25,nurse,758,correct,NA,Mar 27 2023 17:51:50,Agnieszka,1
638b6,638b6_session2_listb_speeded_trial026_glass.wav,2,b,peeded,26,glass,1075,correct,NA,Mar 27 2023 17:51:56,Agnieszka,1
638b6,638b6_session2_listb_speeded_trial027_bra.wav,2,b,peeded,27,bra,737,correct,NA,Mar 27 2023 17:52:02,Agnieszka,1
638b6,638b6_session2_listb_speeded_trial028_calculator.wav,2,b,peeded,28,calculator,832,correct,cut off,Mar 27 2023 17:52:10,Agnieszka,1
638b6,638b6_session2_listb_speeded_trial029_skull.wav,2,b,peeded,29,skull,834,correct,NA,Mar 27 2023 17:52:18,Agnieszka,1
638b6,638b6_session2_listb_speeded_trial030_swimming.wav,2,b,peeded,30,swimming,822,correct,NA,Mar 27 2023 17:52:24,Agnieszka,1
638b6,638b6_session2_listb_speeded_trial031_burger.wav,2,b,peeded,31,burger,764,correct,NA,Mar 27 2023 17:52:30,Agnieszka,1
638b6,638b6_session2_listb_speeded_trial032_cactus.wav,2,b,peeded,32,cactus,797,correct,NA,Mar 27 2023 17:52:35,Agnieszka,1
638b6,638b6_session2_listb_speeded_trial033_well.wav,2,b,peeded,33,well,746,correct,NA,Mar 27 2023 17:52:41,Agnieszka,1
638b6,638b6_session2_listb_speeded_trial034_giraffe.wav,2,b,peeded,34,giraffe,746,correct,NA,Mar 27 2023 17:52:51,Agnieszka,1
638b6,638b6_session2_listb_speeded_trial035_sink.wav,2,b,peeded,35,sink,894,correct,NA,Mar 27 2023 17:52:58,Agnieszka,1
638b6,638b6_session2_listb_speeded_trial036_cannon.wav,2,b,peeded,36,cannon,881,correct,NA,Mar 27 2023 17:53:04,Agnieszka,1
638b6,638b6_session2_listb_speeded_trial037_glasses.wav,2,b,peeded,37,glasses,702,correct,NA,Mar 27 2023 17:53:15,Agnieszka,1
638b6,638b6_session2_listb_speeded_trial038_broccoli.wav,2,b,peeded,38,broccoli,-1,disfluency,NA,Mar 27 2023 17:53:22,Agnieszka,1
638b6,638b6_session2_listb_speeded_trial039_hedgehog.wav,2,b,peeded,39,hedgehog,766,correct,NA,Mar 27 2023 17:53:28,Agnieszka,1
638b6,638b6_session2_listb_speeded_trial040_foot.wav,2,b,peeded,40,foot,773,correct,NA,Mar 27 2023 17:53:39,Agnieszka,1
638b6,638b6_session2_listb_speeded_trial041_beard.wav,2,b,peeded,41,beard,781,correct,NA,Mar 27 2023 17:53:44,Agnieszka,1
638b6,638b6_session2_listb_speeded_trial042_coffin.wav,2,b,peeded,42,coffin,727,correct,NA,Mar 27 2023 17:53:50,Agnieszka,1
638b6,638b6_session2_listb_speeded_trial043_egg.wav,2,b,peeded,43,egg,847,correct,NA,Mar 27 2023 17:53:55,Agnieszka,1
638b6,638b6_session2_listb_speeded_trial044_scarf.wav,2,b,peeded,44,scarf,847,correct,NA,Mar 27 2023 17:54:03,Agnieszka,1
638b6,638b6_session2_listb_speeded_trial045_pilot.wav,2,b,peeded,45,pilot,990,correct,NA,Mar 27 2023 17:54:10,Agnieszka,1
638b6,638b6_session2_listb_speeded_trial046_dragon.wav,2,b,peeded,46,dragon,940,correct,NA,Mar 27 2023 17:54:15,Agnieszka,1
638b6,638b6_session2_listb_speeded_trial047_balloon.wav,2,b,peeded,47,balloon,748,correct,NA,Mar 27 2023 17:54:21,Agnieszka,1
638b6,638b6_session2_listb_speeded_trial048_calendar.wav,2,b,peeded,48,calendar,-1,no_resp,NA,Mar 27 2023 17:54:27,Agnieszka,1
638b6,638b6_session2_listb_speeded_trial049_maze.wav,2,b,peeded,49,maze,842,correct,NA,Mar 27 2023 17:54:34,Agnieszka,1
638b6,638b6_session2_listb_speeded_trial050_hair.wav,2,b,peeded,50,hair,805,correct,NA,Mar 27 2023 17:54:39,Agnieszka,1
638b6,638b6_session2_listb_speeded_trial051_tank.wav,2,b,peeded,51,tank,-1,no_resp,NA,Mar 27 2023 17:54:44,Agnieszka,1
638b6,638b6_session2_listb_speeded_trial052_bat.wav,2,b,peeded,52,bat,861,correct,NA,Mar 27 2023 17:54:49,Agnieszka,1
638b6,638b6_session2_listb_speeded_trial053_apron.wav,2,b,peeded,53,apron,768,correct,NA,Mar 27 2023 17:54:56,Agnieszka,1
638b6,638b6_session2_listb_speeded_trial054_shirt.wav,2,b,peeded,54,shirt,807,correct,NA,Mar 27 2023 17:55:02,Agnieszka,1
638b6,638b6_session2_listb_speeded_trial055_waiter.wav,2,b,peeded,55,waiter,943,correct,NA,Mar 27 2023 17:55:07,Agnieszka,1
638b6,638b6_session2_listb_speeded_trial056_sheep.wav,2,b,peeded,56,sheep,744,correct,NA,Mar 27 2023 17:55:14,Agnieszka,1
638b6,638b6_session2_listb_speeded_trial057_pumpkin.wav,2,b,peeded,57,pumpkin,800,correct,NA,Mar 27 2023 17:55:24,Agnieszka,1
638b6,638b6_session2_listb_speeded_trial058_airport.wav,2,b,peeded,58,airport,1162,correct,cut off,Mar 27 2023 17:55:31,Agnieszka,1
638b6,638b6_session2_listb_speeded_trial059_pool.wav,2,b,peeded,59,pool,-1,wrong_word,NA,Mar 27 2023 17:55:38,Agnieszka,1
638b6,638b6_session2_listb_speeded_trial060_eye.wav,2,b,peeded,60,eye,823,correct,NA,Mar 27 2023 17:55:45,Agnieszka,1
638b6,638b6_session2_listb_speeded_trial061_king.wav,2,b,peeded,61,king,832,correct,NA,Mar 27 2023 17:55:53,Agnieszka,1
638b6,638b6_session2_listb_speeded_trial062_guitar.wav,2,b,peeded,62,guitar,717,correct,NA,Mar 27 2023 17:56:06,Agnieszka,1
638b6,638b6_session2_listb_speeded_trial063_car.wav,2,b,peeded,63,car,869,correct,NA,Mar 27 2023 17:56:12,Agnieszka,1
638b6,638b6_session2_listb_speeded_trial064_pirate.wav,2,b,peeded,64,pirate,1429,correct,cut off ,Mar 27 2023 17:57:41,Agnieszka,1
638b6,638b6_session2_listb_speeded_trial065_chair.wav,2,b,peeded,65,chair,810,correct,NA,Mar 27 2023 17:57:46,Agnieszka,1
638b6,638b6_session2_listb_speeded_trial066_stapler.wav,2,b,peeded,66,stapler,734,correct,NA,Mar 27 2023 17:57:54,Agnieszka,1
638b6,638b6_session2_listb_speeded_trial067_man.wav,2,b,peeded,67,man,857,correct,NA,Mar 27 2023 17:57:59,Agnieszka,1
638b6,638b6_session2_listb_speeded_trial068_harp.wav,2,b,peeded,68,harp,741,correct,NA,Mar 27 2023 17:58:04,Agnieszka,1
638b6,638b6_session2_listb_speeded_trial069_football.wav,2,b,peeded,69,football,704,correct,NA,Mar 27 2023 17:58:15,Agnieszka,1
638b6,638b6_session2_listb_speeded_trial070_bible.wav,2,b,peeded,70,bible,748,correct,NA,Mar 27 2023 17:58:22,Agnieszka,1
638b6,638b6_session2_listb_speeded_trial071_trumpet.wav,2,b,peeded,71,trumpet,786,correct,NA,Mar 27 2023 17:58:28,Agnieszka,1
638b6,638b6_session2_listb_speeded_trial072_lizard.wav,2,b,peeded,72,lizard,1132,correct,NA,Mar 27 2023 17:58:35,Agnieszka,1
638b6,638b6_session2_listb_speeded_trial073_cloud.wav,2,b,peeded,73,cloud,-1,no_resp,NA,Mar 27 2023 17:58:42,Agnieszka,1
638b6,638b6_session2_listb_speeded_trial074_watch.wav,2,b,peeded,74,watch,732,correct,NA,Mar 27 2023 17:58:48,Agnieszka,1
638b6,638b6_session2_listb_speeded_trial075_fruit.wav,2,b,peeded,75,fruit,842,correct,NA,Mar 27 2023 17:58:58,Agnieszka,1
638b6,638b6_session2_listb_speeded_trial076_back.wav,2,b,peeded,76,back,798,correct,NA,Mar 27 2023 17:59:04,Agnieszka,1
638b6,638b6_session2_listb_speeded_trial077_skeleton.wav,2,b,peeded,77,skeleton,700,correct,NA,Mar 27 2023 17:59:10,Agnieszka,1
638b6,638b6_session2_listb_speeded_trial078_ring.wav,2,b,peeded,78,ring,741,correct,NA,Mar 27 2023 17:59:19,Agnieszka,1
638b6,638b6_session2_listb_speeded_trial079_spoon.wav,2,b,peeded,79,spoon,716,correct,NA,Mar 27 2023 17:59:24,Agnieszka,1
638b6,638b6_session2_listb_speeded_trial080_wallet.wav,2,b,peeded,80,wallet,753,correct,NA,Mar 27 2023 17:59:30,Agnieszka,1
638b6,638b6_session2_listb_speeded_trial081_moustache.wav,2,b,peeded,81,moustache,734,correct,NA,Mar 27 2023 17:59:37,Agnieszka,1
638b6,638b6_session2_listb_speeded_trial082_brain.wav,2,b,peeded,82,brain,832,correct,NA,Mar 27 2023 17:59:44,Agnieszka,1
638b6,638b6_session2_listb_speeded_trial083_ankle.wav,2,b,peeded,83,ankle,835,correct,NA,Mar 27 2023 17:59:50,Agnieszka,1
638b6,638b6_session2_listb_speeded_trial084_girl.wav,2,b,peeded,84,girl,1056,correct,NA,Mar 27 2023 17:59:57,Agnieszka,1
638b6,638b6_session2_listb_speeded_trial085_scarecrow.wav,2,b,peeded,85,scarecrow,781,correct,NA,Mar 27 2023 18:00:03,Agnieszka,1
638b6,638b6_session2_listb_speeded_trial086_caravan.wav,2,b,peeded,86,caravan,810,correct,NA,Mar 27 2023 18:00:07,Agnieszka,1
638b6,638b6_session2_listb_speeded_trial087_umbrella.wav,2,b,peeded,87,umbrella,737,correct,NA,Mar 27 2023 18:00:17,Agnieszka,1
638b6,638b6_session2_listb_speeded_trial088_torch.wav,2,b,peeded,88,torch,793,correct,NA,Mar 27 2023 18:00:25,Agnieszka,1
638b6,638b6_session2_listb_speeded_trial089_road.wav,2,b,peeded,89,road,883,correct,NA,Mar 27 2023 18:00:31,Agnieszka,1
638b6,638b6_session2_listb_speeded_trial090_leaf.wav,2,b,peeded,90,leaf,844,correct,NA,Mar 27 2023 18:00:38,Agnieszka,1
638b6,638b6_session2_listb_speeded_trial091_choir.wav,2,b,peeded,91,choir,829,correct,NA,Mar 27 2023 18:00:44,Agnieszka,1
638b6,638b6_session2_listb_speeded_trial092_diamond.wav,2,b,peeded,92,diamond,808,correct,NA,Mar 27 2023 18:00:50,Agnieszka,1
638b6,638b6_session2_listb_speeded_trial093_door.wav,2,b,peeded,93,door,734,correct,NA,Mar 27 2023 18:00:56,Agnieszka,1
638b6,638b6_session2_listb_speeded_trial094_shark.wav,2,b,peeded,94,shark,1029,correct,NA,Mar 27 2023 18:01:02,Agnieszka,1
638b6,638b6_session2_listb_speeded_trial095_sock.wav,2,b,peeded,95,sock,1031,correct,NA,Mar 27 2023 18:01:08,Agnieszka,1
638b6,638b6_session2_listb_speeded_trial096_nun.wav,2,b,peeded,96,nun,788,correct,NA,Mar 27 2023 18:01:14,Agnieszka,1
638b6,638b6_session2_listb_speeded_trial097_spider.wav,2,b,peeded,97,spider,685,correct,NA,Mar 27 2023 18:01:20,Agnieszka,1
638b6,638b6_session2_listb_speeded_trial098_penguin.wav,2,b,peeded,98,penguin,705,correct,NA,Mar 27 2023 18:01:26,Agnieszka,1
638b6,638b6_session2_listb_speeded_trial099_cigarette.wav,2,b,peeded,99,cigarette,722,correct,NA,Mar 27 2023 18:01:31,Agnieszka,1
638b6,638b6_session2_listb_speeded_trial100_lab.wav,2,b,peeded,100,lab,901,correct,NA,Mar 27 2023 18:01:37,Agnieszka,1
638b6,638b6_session2_listb_speeded_trial101_printer.wav,2,b,peeded,101,printer,1022,correct,NA,Mar 27 2023 18:01:45,Agnieszka,1
638b6,638b6_session2_listb_speeded_trial102_ambulance.wav,2,b,peeded,102,ambulance,1201,correct,cut off,Mar 27 2023 18:01:58,Agnieszka,1
638b6,638b6_session2_listb_speeded_trial103_gun.wav,2,b,peeded,103,gun,795,correct,NA,Mar 27 2023 18:02:04,Agnieszka,1
638b6,638b6_session2_listb_speeded_trial104_face.wav,2,b,peeded,104,face,658,correct,NA,Mar 27 2023 18:02:17,Agnieszka,1
638b6,638b6_session2_listb_speeded_trial105_lemon.wav,2,b,peeded,105,lemon,869,correct,NA,Mar 27 2023 18:02:22,Agnieszka,1
638b6,638b6_session2_listb_speeded_trial106_thermometer.wav,2,b,peeded,106,thermometer,-1,no_resp,NA,Mar 27 2023 18:02:27,Agnieszka,1
638b6,638b6_session2_listb_speeded_trial107_asparagus.wav,2,b,peeded,107,asparagus,793,correct,NA,Mar 27 2023 18:02:37,Agnieszka,1
638b6,638b6_session2_listb_speeded_trial108_parachute.wav,2,b,peeded,108,parachute,1048,correct,cut off,Mar 27 2023 18:02:44,Agnieszka,1
638b6,638b6_session2_listb_speeded_trial109_vein.wav,2,b,peeded,109,vein,1001,correct,NA,Mar 27 2023 18:02:50,Agnieszka,1
638b6,638b6_session2_listb_speeded_trial110_cage.wav,2,b,peeded,110,cage,896,correct,NA,Mar 27 2023 18:02:59,Agnieszka,1
638b6,638b6_session2_listb_speeded_trial111_dinosaur.wav,2,b,peeded,111,dinosaur,835,correct,NA,Mar 27 2023 18:03:22,Agnieszka,1
638b6,638b6_session2_listb_speeded_trial112_television.wav,2,b,peeded,112,television,766,correct,NA,Mar 27 2023 18:03:28,Agnieszka,1
638b6,638b6_session2_listb_speeded_trial113_tooth.wav,2,b,peeded,113,tooth,928,correct,NA,Mar 27 2023 18:03:33,Agnieszka,1
638b6,638b6_session2_listb_speeded_trial114_dog.wav,2,b,peeded,114,dog,781,correct,NA,Mar 27 2023 18:03:39,Agnieszka,1
638b6,638b6_session2_listb_speeded_trial115_farm.wav,2,b,peeded,115,farm,989,correct,NA,Mar 27 2023 18:03:43,Agnieszka,1
638b6,638b6_session2_listb_speeded_trial116_camera.wav,2,b,peeded,116,camera,758,correct,NA,Mar 27 2023 18:03:49,Agnieszka,1
638b6,638b6_session2_listb_speeded_trial117_jar.wav,2,b,peeded,117,jar,791,correct,NA,Mar 27 2023 18:03:54,Agnieszka,1
638b6,638b6_session2_listb_speeded_trial118_snail.wav,2,b,peeded,118,snail,739,correct,NA,Mar 27 2023 18:04:00,Agnieszka,1
638b6,638b6_session2_listb_speeded_trial119_mask.wav,2,b,peeded,119,mask,1107,correct,cut off,Mar 27 2023 18:04:07,Agnieszka,1
638b6,638b6_session2_listb_speeded_trial120_duck.wav,2,b,peeded,120,duck,842,correct,NA,Mar 27 2023 18:04:12,Agnieszka,1
638b6,638b6_session2_listb_speeded_trial121_coffee.wav,2,b,peeded,121,coffee,950,correct,NA,Mar 27 2023 18:04:21,Agnieszka,1
638b6,638b6_session2_listb_speeded_trial122_butcher.wav,2,b,peeded,122,butcher,1151,correct,NA,Mar 27 2023 18:04:26,Agnieszka,1
638b6,638b6_session2_listb_speeded_trial123_belt.wav,2,b,peeded,123,belt,776,correct,NA,Mar 27 2023 18:04:32,Agnieszka,1
638b6,638b6_session2_listb_speeded_trial124_finger.wav,2,b,peeded,124,finger,761,correct,NA,Mar 27 2023 18:04:41,Agnieszka,1
638b6,638b6_session2_listb_speeded_trial125_iron.wav,2,b,peeded,125,iron,737,correct,NA,Mar 27 2023 18:04:46,Agnieszka,1
638b6,638b6_session2_listb_speeded_trial126_baby.wav,2,b,peeded,126,baby,709,correct,NA,Mar 27 2023 18:04:52,Agnieszka,1
638b6,638b6_session2_listb_speeded_trial127_broom.wav,2,b,peeded,127,broom,775,correct,NA,Mar 27 2023 18:04:58,Agnieszka,1
638b6,638b6_session2_listb_speeded_trial128_bin.wav,2,b,peeded,128,bin,874,correct,NA,Mar 27 2023 18:05:03,Agnieszka,1
638b6,638b6_session2_listb_speeded_trial129_strawberry.wav,2,b,peeded,129,strawberry,657,correct,NA,Mar 27 2023 18:05:09,Agnieszka,1
638b6,638b6_session2_listb_speeded_trial130_bed.wav,2,b,peeded,130,bed,802,correct,NA,Mar 27 2023 18:05:14,Agnieszka,1
638b6,638b6_session2_listb_speeded_trial131_fan.wav,2,b,peeded,131,fan,756,correct,NA,Mar 27 2023 18:05:21,Agnieszka,1
638b6,638b6_session2_listb_speeded_trial132_feather.wav,2,b,peeded,132,feather,-1,no_resp,NA,Mar 27 2023 18:05:42,Agnieszka,1
638b6,638b6_session2_listb_speeded_trial133_cowboy.wav,2,b,peeded,133,cowboy,1377,correct,cut off after 'cow',Mar 27 2023 18:05:58,Agnieszka,1
638b6,638b6_session2_listb_speeded_trial134_pizza.wav,2,b,peeded,134,pizza,785,correct,NA,Mar 27 2023 18:06:09,Agnieszka,1
638b6,638b6_session2_listb_speeded_trial135_devil.wav,2,b,peeded,135,devil,830,correct,NA,Mar 27 2023 18:06:16,Agnieszka,1
638b6,638b6_session2_listb_speeded_trial136_volcano.wav,2,b,peeded,136,volcano,1100,correct,cut off,Mar 27 2023 18:06:29,Agnieszka,1
638b6,638b6_session2_listb_speeded_trial137_desert.wav,2,b,peeded,137,desert,1410,correct,cut off,Mar 27 2023 18:06:37,Agnieszka,1
638b6,638b6_session2_listb_speeded_trial138_heart.wav,2,b,peeded,138,heart,719,correct,NA,Mar 27 2023 18:06:43,Agnieszka,1
638b6,638b6_session2_listb_speeded_trial139_button.wav,2,b,peeded,139,button,798,correct,NA,Mar 27 2023 18:06:50,Agnieszka,1
638b6,638b6_session2_listb_speeded_trial140_keyboard.wav,2,b,peeded,140,keyboard,-1,disfluency,NA,Mar 27 2023 18:06:55,Agnieszka,1
638b6,638b6_session2_listb_speeded_trial141_nose.wav,2,b,peeded,141,nose,719,correct,NA,Mar 27 2023 18:07:01,Agnieszka,1
638b6,638b6_session2_listb_speeded_trial142_lion.wav,2,b,peeded,142,lion,697,correct,NA,Mar 27 2023 18:07:06,Agnieszka,1
638b6,638b6_session2_listb_speeded_trial143_earring.wav,2,b,peeded,143,earring,1016,correct,NA,Mar 27 2023 18:07:12,Agnieszka,1
638b6,638b6_session2_listb_speeded_trial144_scorpion.wav,2,b,peeded,144,scorpion,825,correct,NA,Mar 27 2023 18:07:18,Agnieszka,1
638b6,638b6_session2_listb_speeded_trial145_roof.wav,2,b,peeded,145,roof,992,correct,NA,Mar 27 2023 18:07:24,Agnieszka,1
638b6,638b6_session2_listb_speeded_trial146_coconut.wav,2,b,peeded,146,coconut,891,correct,NA,Mar 27 2023 18:07:30,Agnieszka,1
638b6,638b6_session2_listb_speeded_trial147_hand.wav,2,b,peeded,147,hand,815,correct,NA,Mar 27 2023 18:07:36,Agnieszka,1
638b6,638b6_session2_listb_speeded_trial148_shadow.wav,2,b,peeded,148,shadow,1115,correct,cut off,Mar 27 2023 18:07:45,Agnieszka,1
638b6,638b6_session2_listb_speeded_trial149_telephone.wav,2,b,peeded,149,telephone,714,correct,NA,Mar 27 2023 18:07:52,Agnieszka,1
638b6,638b6_session2_listb_speeded_trial150_house.wav,2,b,peeded,150,house,810,correct,NA,Mar 27 2023 18:07:58,Agnieszka,1
