Participant_ID,File_Name,Session,List,Type_Trial,Trial_Nbr,Target,RT,Response_Trial,Comment,Date_Correction,Assessor_Name,Processed
630cb,630cb_session2_listb_speeded_trial001_coffee.wav,2,b,peeded,1,coffee,850,correct,NA,Mar 13 2023 12:20:12,Laura,1
630cb,630cb_session2_listb_speeded_trial002_house.wav,2,b,peeded,2,house,673,correct,NA,Mar 13 2023 12:22:48,Laura,1
630cb,630cb_session2_listb_speeded_trial003_greenhouse.wav,2,b,peeded,3,greenhouse,749,correct,NA,Mar 13 2023 12:23:25,Laura,1
630cb,630cb_session2_listb_speeded_trial004_bat.wav,2,b,peeded,4,bat,781,correct,NA,Mar 13 2023 12:23:47,Laura,1
630cb,630cb_session2_listb_speeded_trial005_condom.wav,2,b,peeded,5,condom,957,correct,NA,Mar 13 2023 12:24:28,Laura,1
630cb,630cb_session2_listb_speeded_trial006_wallet.wav,2,b,peeded,6,wallet,791,correct,NA,Mar 13 2023 12:28:31,Laura,1
630cb,630cb_session2_listb_speeded_trial007_scarf.wav,2,b,peeded,7,scarf,710,correct,NA,Mar 13 2023 12:30:19,Laura,1
630cb,630cb_session2_listb_speeded_trial008_fist.wav,2,b,peeded,8,fist,-1,disfluency,first onset wrong word,Mar 13 2023 12:33:20,Laura,1
630cb,630cb_session2_listb_speeded_trial009_baby.wav,2,b,peeded,9,baby,764,correct,NA,Mar 13 2023 12:33:34,Laura,1
630cb,630cb_session2_listb_speeded_trial010_cloud.wav,2,b,peeded,10,cloud,1369,uncertain,cut off,Mar 13 2023 12:34:01,Laura,1
630cb,630cb_session2_listb_speeded_trial011_foot.wav,2,b,peeded,11,foot,811,correct,NA,Mar 13 2023 12:34:20,Laura,1
630cb,630cb_session2_listb_speeded_trial012_bin.wav,2,b,peeded,12,bin,810,correct,NA,Mar 13 2023 13:59:38,Laura,1
630cb,630cb_session2_listb_speeded_trial013_devil.wav,2,b,peeded,13,devil,922,correct,NA,Mar 13 2023 13:59:59,Laura,1
630cb,630cb_session2_listb_speeded_trial014_giraffe.wav,2,b,peeded,14,giraffe,795,correct,NA,Mar 13 2023 14:01:18,Laura,1
630cb,630cb_session2_listb_speeded_trial015_earring.wav,2,b,peeded,15,earring,-1,disfluency,NA,Mar 13 2023 14:01:43,Laura,1
630cb,630cb_session2_listb_speeded_trial016_penguin.wav,2,b,peeded,16,penguin,755,correct,NA,Mar 13 2023 14:01:56,Laura,1
630cb,630cb_session2_listb_speeded_trial017_egg.wav,2,b,peeded,17,egg,803,correct,NA,Mar 13 2023 14:02:09,Laura,1
630cb,630cb_session2_listb_speeded_trial018_witch.wav,2,b,peeded,18,witch,829,correct,NA,Mar 13 2023 14:02:46,Laura,1
630cb,630cb_session2_listb_speeded_trial019_lab.wav,2,b,peeded,19,lab,-1,wrong_word,NA,Mar 13 2023 14:02:52,Laura,1
630cb,630cb_session2_listb_speeded_trial020_door.wav,2,b,peeded,20,door,1529,uncertain,cut off,Mar 13 2023 14:03:34,Laura,1
630cb,630cb_session2_listb_speeded_trial021_vein.wav,2,b,peeded,21,vein,903,correct,NA,Mar 13 2023 14:03:47,Laura,1
630cb,630cb_session2_listb_speeded_trial022_heart.wav,2,b,peeded,22,heart,762,correct,NA,Mar 13 2023 14:04:26,Laura,1
630cb,630cb_session2_listb_speeded_trial023_lion.wav,2,b,peeded,23,lion,787,correct,NA,Mar 13 2023 14:04:41,Laura,1
630cb,630cb_session2_listb_speeded_trial024_keyboard.wav,2,b,peeded,24,keyboard,812,correct,NA,Mar 13 2023 14:04:59,Laura,1
630cb,630cb_session2_listb_speeded_trial025_airport.wav,2,b,peeded,25,airport,929,correct,NA,Mar 13 2023 14:05:15,Laura,1
630cb,630cb_session2_listb_speeded_trial026_glass.wav,2,b,peeded,26,glass,998,correct,NA,Mar 13 2023 14:05:53,Laura,1
630cb,630cb_session2_listb_speeded_trial027_gun.wav,2,b,peeded,27,gun,1061,correct,NA,Mar 13 2023 14:06:11,Laura,1
630cb,630cb_session2_listb_speeded_trial028_coconut.wav,2,b,peeded,28,coconut,824,correct,NA,Mar 13 2023 14:06:30,Laura,1
630cb,630cb_session2_listb_speeded_trial029_bed.wav,2,b,peeded,29,bed,744,correct,NA,Mar 13 2023 14:06:51,Laura,1
630cb,630cb_session2_listb_speeded_trial030_shirt.wav,2,b,peeded,30,shirt,912,correct,NA,Mar 13 2023 14:07:32,Laura,1
630cb,630cb_session2_listb_speeded_trial031_balloon.wav,2,b,peeded,31,balloon,789,correct,NA,Mar 13 2023 14:07:53,Laura,1
630cb,630cb_session2_listb_speeded_trial032_dinosaur.wav,2,b,peeded,32,dinosaur,1130,correct,NA,Mar 13 2023 14:08:06,Laura,1
630cb,630cb_session2_listb_speeded_trial033_dolphin.wav,2,b,peeded,33,dolphin,869,correct,NA,Mar 13 2023 14:08:33,Laura,1
630cb,630cb_session2_listb_speeded_trial034_choir.wav,2,b,peeded,34,choir,942,correct,NA,Mar 13 2023 14:08:46,Laura,1
630cb,630cb_session2_listb_speeded_trial035_parachute.wav,2,b,peeded,35,parachute,-1,wrong_word,also cut off,Mar 13 2023 14:08:58,Laura,1
630cb,630cb_session2_listb_speeded_trial036_sheep.wav,2,b,peeded,36,sheep,1162,correct,NA,Mar 13 2023 14:09:18,Laura,1
630cb,630cb_session2_listb_speeded_trial037_calendar.wav,2,b,peeded,37,calendar,820,correct,NA,Mar 13 2023 14:09:27,Laura,1
630cb,630cb_session2_listb_speeded_trial038_hand.wav,2,b,peeded,38,hand,643,correct,NA,Mar 13 2023 14:09:42,Laura,1
630cb,630cb_session2_listb_speeded_trial039_telephone.wav,2,b,peeded,39,telephone,818,correct,NA,Mar 13 2023 14:10:07,Laura,1
630cb,630cb_session2_listb_speeded_trial040_bible.wav,2,b,peeded,40,bible,-1,wrong_word,book,Mar 13 2023 14:10:25,Laura,1
630cb,630cb_session2_listb_speeded_trial041_sink.wav,2,b,peeded,41,sink,920,correct,NA,Mar 13 2023 14:10:42,Laura,1
630cb,630cb_session2_listb_speeded_trial042_thermometer.wav,2,b,peeded,42,thermometer,862,correct,NA,Mar 13 2023 14:11:54,Laura,1
630cb,630cb_session2_listb_speeded_trial043_dentist.wav,2,b,peeded,43,dentist,1520,uncertain,cut off,Mar 13 2023 14:12:15,Laura,1
630cb,630cb_session2_listb_speeded_trial044_volcano.wav,2,b,peeded,44,volcano,803,correct,NA,Mar 13 2023 14:12:33,Laura,1
630cb,630cb_session2_listb_speeded_trial045_strawberry.wav,2,b,peeded,45,strawberry,648,correct,NA,Mar 13 2023 14:12:46,Laura,1
630cb,630cb_session2_listb_speeded_trial046_burger.wav,2,b,peeded,46,burger,902,uncertain,hamburger,Mar 13 2023 14:13:10,Laura,1
630cb,630cb_session2_listb_speeded_trial047_dog.wav,2,b,peeded,47,dog,884,correct,NA,Mar 13 2023 14:13:22,Laura,1
630cb,630cb_session2_listb_speeded_trial048_fruit.wav,2,b,peeded,48,fruit,858,correct,NA,Mar 13 2023 14:13:35,Laura,1
630cb,630cb_session2_listb_speeded_trial049_scorpion.wav,2,b,peeded,49,scorpion,866,correct,NA,Mar 13 2023 14:13:58,Laura,1
630cb,630cb_session2_listb_speeded_trial050_ring.wav,2,b,peeded,50,ring,980,correct,NA,Mar 13 2023 14:14:09,Laura,1
630cb,630cb_session2_listb_speeded_trial051_bedroom.wav,2,b,peeded,51,bedroom,1355,uncertain,cut off,Mar 13 2023 14:14:26,Laura,1
630cb,630cb_session2_listb_speeded_trial052_pilot.wav,2,b,peeded,52,pilot,918,correct,NA,Mar 13 2023 14:14:42,Laura,1
630cb,630cb_session2_listb_speeded_trial053_diamond.wav,2,b,peeded,53,diamond,1406,uncertain,cut off,Mar 13 2023 14:15:04,Laura,1
630cb,630cb_session2_listb_speeded_trial054_button.wav,2,b,peeded,54,button,1154,correct,NA,Mar 13 2023 14:15:19,Laura,1
630cb,630cb_session2_listb_speeded_trial055_jar.wav,2,b,peeded,55,jar,929,correct,NA,Mar 13 2023 14:15:35,Laura,1
630cb,630cb_session2_listb_speeded_trial056_nurse.wav,2,b,peeded,56,nurse,970,correct,NA,Mar 13 2023 14:15:48,Laura,1
630cb,630cb_session2_listb_speeded_trial057_hair.wav,2,b,peeded,57,hair,825,correct,NA,Mar 13 2023 14:16:05,Laura,1
630cb,630cb_session2_listb_speeded_trial058_farm.wav,2,b,peeded,58,farm,1404,uncertain,cut off,Mar 13 2023 14:16:38,Laura,1
630cb,630cb_session2_listb_speeded_trial059_broccoli.wav,2,b,peeded,59,broccoli,939,correct,NA,Mar 13 2023 14:17:12,Laura,1
630cb,630cb_session2_listb_speeded_trial060_shark.wav,2,b,peeded,60,shark,1095,correct,NA,Mar 13 2023 14:17:26,Laura,1
630cb,630cb_session2_listb_speeded_trial061_watch.wav,2,b,peeded,61,watch,812,correct,NA,Mar 13 2023 14:17:45,Laura,1
630cb,630cb_session2_listb_speeded_trial062_eye.wav,2,b,peeded,62,eye,794,correct,NA,Mar 13 2023 14:18:00,Laura,1
630cb,630cb_session2_listb_speeded_trial063_stapler.wav,2,b,peeded,63,stapler,789,correct,NA,Mar 13 2023 14:18:18,Laura,1
630cb,630cb_session2_listb_speeded_trial064_tank.wav,2,b,peeded,64,tank,881,correct,NA,Mar 13 2023 14:18:33,Laura,1
630cb,630cb_session2_listb_speeded_trial065_desert.wav,2,b,peeded,65,desert,1179,correct,NA,Mar 13 2023 14:18:46,Laura,1
630cb,630cb_session2_listb_speeded_trial066_broom.wav,2,b,peeded,66,broom,1234,correct,NA,Mar 13 2023 14:19:00,Laura,1
630cb,630cb_session2_listb_speeded_trial067_sock.wav,2,b,peeded,67,sock,750,correct,NA,Mar 13 2023 14:19:12,Laura,1
630cb,630cb_session2_listb_speeded_trial068_pirate.wav,2,b,peeded,68,pirate,1012,correct,NA,Mar 13 2023 14:19:27,Laura,1
630cb,630cb_session2_listb_speeded_trial069_cannon.wav,2,b,peeded,69,cannon,734,correct,NA,Mar 13 2023 14:19:46,Laura,1
630cb,630cb_session2_listb_speeded_trial070_brain.wav,2,b,peeded,70,brain,811,correct,NA,Mar 13 2023 14:19:57,Laura,1
630cb,630cb_session2_listb_speeded_trial071_coffin.wav,2,b,peeded,71,coffin,835,correct,NA,Mar 13 2023 14:20:10,Laura,1
630cb,630cb_session2_listb_speeded_trial072_leaf.wav,2,b,peeded,72,leaf,889,correct,NA,Mar 13 2023 14:20:22,Laura,1
630cb,630cb_session2_listb_speeded_trial073_television.wav,2,b,peeded,73,television,1165,uncertain,tv,Mar 13 2023 14:20:52,Laura,1
630cb,630cb_session2_listb_speeded_trial074_ankle.wav,2,b,peeded,74,ankle,1190,correct,NA,Mar 13 2023 14:21:11,Laura,1
630cb,630cb_session2_listb_speeded_trial075_crown.wav,2,b,peeded,75,crown,1182,correct,NA,Mar 13 2023 14:21:32,Laura,1
630cb,630cb_session2_listb_speeded_trial076_microphone.wav,2,b,peeded,76,microphone,828,correct,NA,Mar 13 2023 14:21:44,Laura,1
630cb,630cb_session2_listb_speeded_trial077_moustache.wav,2,b,peeded,77,moustache,957,correct,NA,Mar 13 2023 14:22:07,Laura,1
630cb,630cb_session2_listb_speeded_trial078_skateboard.wav,2,b,peeded,78,skateboard,1080,uncertain,cut off,Mar 13 2023 14:22:29,Laura,1
630cb,630cb_session2_listb_speeded_trial079_torch.wav,2,b,peeded,79,torch,847,correct,NA,Mar 13 2023 14:22:47,Laura,1
630cb,630cb_session2_listb_speeded_trial080_pizza.wav,2,b,peeded,80,pizza,718,correct,NA,Mar 13 2023 14:22:59,Laura,1
630cb,630cb_session2_listb_speeded_trial081_pool.wav,2,b,peeded,81,pool,1045,correct,NA,Mar 13 2023 14:23:12,Laura,1
630cb,630cb_session2_listb_speeded_trial082_handle.wav,2,b,peeded,82,handle,1292,uncertain,cut off,Mar 13 2023 14:23:43,Laura,1
630cb,630cb_session2_listb_speeded_trial083_mirror.wav,2,b,peeded,83,mirror,1442,uncertain,cut off,Mar 13 2023 14:24:01,Laura,1
630cb,630cb_session2_listb_speeded_trial084_nun.wav,2,b,peeded,84,nun,-1,no_resp,NA,Mar 13 2023 14:24:10,Laura,1
630cb,630cb_session2_listb_speeded_trial085_apron.wav,2,b,peeded,85,apron,1135,uncertain,"left-over sound from nun in the beginning, apron correct",Mar 13 2023 14:25:34,Laura,1
630cb,630cb_session2_listb_speeded_trial086_honey.wav,2,b,peeded,86,honey,1152,correct,NA,Mar 13 2023 14:25:53,Laura,1
630cb,630cb_session2_listb_speeded_trial087_cigarette.wav,2,b,peeded,87,cigarette,1107,uncertain,cut off,Mar 13 2023 14:26:26,Laura,1
630cb,630cb_session2_listb_speeded_trial088_football.wav,2,b,peeded,88,football,1002,correct,NA,Mar 13 2023 14:26:44,Laura,1
630cb,630cb_session2_listb_speeded_trial089_calculator.wav,2,b,peeded,89,calculator,960,correct,NA,Mar 13 2023 14:26:57,Laura,1
630cb,630cb_session2_listb_speeded_trial090_spoon.wav,2,b,peeded,90,spoon,1015,correct,NA,Mar 13 2023 14:27:22,Laura,1
630cb,630cb_session2_listb_speeded_trial091_spider.wav,2,b,peeded,91,spider,1055,correct,NA,Mar 13 2023 14:27:48,Laura,1
630cb,630cb_session2_listb_speeded_trial092_chair.wav,2,b,peeded,92,chair,800,correct,NA,Mar 13 2023 14:28:00,Laura,1
630cb,630cb_session2_listb_speeded_trial093_harp.wav,2,b,peeded,93,harp,1058,correct,NA,Mar 13 2023 14:28:41,Laura,1
630cb,630cb_session2_listb_speeded_trial094_fan.wav,2,b,peeded,94,fan,810,correct,NA,Mar 13 2023 14:28:56,Laura,1
630cb,630cb_session2_listb_speeded_trial095_man.wav,2,b,peeded,95,man,-1,wrong_word,person,Mar 13 2023 14:29:17,Laura,1
630cb,630cb_session2_listb_speeded_trial096_bra.wav,2,b,peeded,96,bra,1490,uncertain,cut off,Mar 13 2023 14:29:32,Laura,1
630cb,630cb_session2_listb_speeded_trial097_cone.wav,2,b,peeded,97,cone,1195,correct,NA,Mar 13 2023 14:29:48,Laura,1
630cb,630cb_session2_listb_speeded_trial098_butcher.wav,2,b,peeded,98,butcher,930,correct,NA,Mar 13 2023 14:30:01,Laura,1
630cb,630cb_session2_listb_speeded_trial099_camera.wav,2,b,peeded,99,camera,880,correct,NA,Mar 13 2023 14:30:12,Laura,1
630cb,630cb_session2_listb_speeded_trial100_skeleton.wav,2,b,peeded,100,skeleton,768,correct,NA,Mar 13 2023 14:30:37,Laura,1
630cb,630cb_session2_listb_speeded_trial101_banana.wav,2,b,peeded,101,banana,691,correct,NA,Mar 13 2023 14:30:53,Laura,1
630cb,630cb_session2_listb_speeded_trial102_skull.wav,2,b,peeded,102,skull,635,correct,NA,Mar 13 2023 14:31:39,Laura,1
630cb,630cb_session2_listb_speeded_trial103_dragon.wav,2,b,peeded,103,dragon,1062,correct,NA,Mar 13 2023 14:31:59,Laura,1
630cb,630cb_session2_listb_speeded_trial104_swimming.wav,2,b,peeded,104,swimming,929,uncertain,swimmer,Mar 13 2023 14:32:43,Laura,1
630cb,630cb_session2_listb_speeded_trial105_boomerang.wav,2,b,peeded,105,boomerang,813,correct,NA,Mar 13 2023 14:32:56,Laura,1
630cb,630cb_session2_listb_speeded_trial106_knee.wav,2,b,peeded,106,knee,830,correct,NA,Mar 13 2023 14:33:07,Laura,1
630cb,630cb_session2_listb_speeded_trial107_road.wav,2,b,peeded,107,road,910,correct,NA,Mar 13 2023 14:33:17,Laura,1
630cb,630cb_session2_listb_speeded_trial108_roof.wav,2,b,peeded,108,roof,1417,uncertain,cut off,Mar 13 2023 14:33:38,Laura,1
630cb,630cb_session2_listb_speeded_trial109_umbrella.wav,2,b,peeded,109,umbrella,964,correct,NA,Mar 13 2023 14:33:56,Laura,1
630cb,630cb_session2_listb_speeded_trial110_girl.wav,2,b,peeded,110,girl,1088,correct,NA,Mar 13 2023 14:34:11,Laura,1
630cb,630cb_session2_listb_speeded_trial111_lizard.wav,2,b,peeded,111,lizard,-1,wrong_word,NA,Mar 13 2023 14:34:24,Laura,1
630cb,630cb_session2_listb_speeded_trial112_hedgehog.wav,2,b,peeded,112,hedgehog,1321,uncertain,cut off,Mar 13 2023 14:34:42,Laura,1
630cb,630cb_session2_listb_speeded_trial113_shadow.wav,2,b,peeded,113,shadow,-1,no_resp,NA,Mar 13 2023 14:35:20,Laura,1
630cb,630cb_session2_listb_speeded_trial114_cage.wav,2,b,peeded,114,cage,930,correct,NA,Mar 13 2023 14:35:31,Laura,1
630cb,630cb_session2_listb_speeded_trial115_trumpet.wav,2,b,peeded,115,trumpet,-1,no_resp,NA,Mar 13 2023 14:35:38,Laura,1
630cb,630cb_session2_listb_speeded_trial116_fire.wav,2,b,peeded,116,fire,860,correct,NA,Mar 13 2023 14:36:12,Laura,1
630cb,630cb_session2_listb_speeded_trial117_car.wav,2,b,peeded,117,car,-1,disfluency,NA,Mar 13 2023 14:36:24,Laura,1
630cb,630cb_session2_listb_speeded_trial118_pumpkin.wav,2,b,peeded,118,pumpkin,902,correct,NA,Mar 13 2023 14:36:35,Laura,1
630cb,630cb_session2_listb_speeded_trial119_ambulance.wav,2,b,peeded,119,ambulance,969,correct,NA,Mar 13 2023 14:36:50,Laura,1
630cb,630cb_session2_listb_speeded_trial120_well.wav,2,b,peeded,120,well,979,correct,NA,Mar 13 2023 14:37:10,Laura,1
630cb,630cb_session2_listb_speeded_trial121_tooth.wav,2,b,peeded,121,tooth,1039,correct,NA,Mar 13 2023 14:37:42,Laura,1
630cb,630cb_session2_listb_speeded_trial122_nose.wav,2,b,peeded,122,nose,868,correct,NA,Mar 13 2023 14:37:54,Laura,1
630cb,630cb_session2_listb_speeded_trial123_caravan.wav,2,b,peeded,123,caravan,948,correct,NA,Mar 13 2023 14:38:04,Laura,1
630cb,630cb_session2_listb_speeded_trial124_duck.wav,2,b,peeded,124,duck,940,correct,NA,Mar 13 2023 14:38:17,Laura,1
630cb,630cb_session2_listb_speeded_trial125_elephant.wav,2,b,peeded,125,elephant,859,correct,NA,Mar 13 2023 14:38:29,Laura,1
630cb,630cb_session2_listb_speeded_trial126_maze.wav,2,b,peeded,126,maze,946,correct,NA,Mar 13 2023 14:38:55,Laura,1
630cb,630cb_session2_listb_speeded_trial127_cowboy.wav,2,b,peeded,127,cowboy,-1,no_resp,NA,Mar 13 2023 14:39:01,Laura,1
630cb,630cb_session2_listb_speeded_trial128_waiter.wav,2,b,peeded,128,waiter,930,correct,NA,Mar 13 2023 14:39:19,Laura,1
630cb,630cb_session2_listb_speeded_trial129_snail.wav,2,b,peeded,129,snail,689,correct,NA,Mar 13 2023 14:39:33,Laura,1
630cb,630cb_session2_listb_speeded_trial130_printer.wav,2,b,peeded,130,printer,1484,uncertain,cut off,Mar 13 2023 14:39:55,Laura,1
630cb,630cb_session2_listb_speeded_trial131_parrot.wav,2,b,peeded,131,parrot,1302,correct,NA,Mar 13 2023 14:40:09,Laura,1
630cb,630cb_session2_listb_speeded_trial132_finger.wav,2,b,peeded,132,finger,965,correct,NA,Mar 13 2023 14:40:57,Laura,1
630cb,630cb_session2_listb_speeded_trial133_beard.wav,2,b,peeded,133,beard,865,correct,NA,Mar 13 2023 14:41:23,Laura,1
630cb,630cb_session2_listb_speeded_trial134_glasses.wav,2,b,peeded,134,glasses,1124,correct,NA,Mar 13 2023 14:41:51,Laura,1
630cb,630cb_session2_listb_speeded_trial135_king.wav,2,b,peeded,135,king,798,correct,NA,Mar 13 2023 14:42:04,Laura,1
630cb,630cb_session2_listb_speeded_trial136_screwdriver.wav,2,b,peeded,136,screwdriver,1188,uncertain,cut off,Mar 13 2023 14:42:27,Laura,1
630cb,630cb_session2_listb_speeded_trial137_needle.wav,2,b,peeded,137,needle,1480,uncertain,cut off,Mar 13 2023 14:42:39,Laura,1
630cb,630cb_session2_listb_speeded_trial138_frog.wav,2,b,peeded,138,frog,829,correct,NA,Mar 13 2023 14:43:06,Laura,1
630cb,630cb_session2_listb_speeded_trial139_mask.wav,2,b,peeded,139,mask,984,correct,NA,Mar 13 2023 14:43:35,Laura,1
630cb,630cb_session2_listb_speeded_trial140_lemon.wav,2,b,peeded,140,lemon,798,correct,NA,Mar 13 2023 14:43:46,Laura,1
630cb,630cb_session2_listb_speeded_trial141_guitar.wav,2,b,peeded,141,guitar,778,correct,NA,Mar 13 2023 14:43:58,Laura,1
630cb,630cb_session2_listb_speeded_trial142_iron.wav,2,b,peeded,142,iron,914,correct,NA,Mar 13 2023 14:44:10,Laura,1
630cb,630cb_session2_listb_speeded_trial143_cactus.wav,2,b,peeded,143,cactus,884,correct,NA,Mar 13 2023 14:44:22,Laura,1
630cb,630cb_session2_listb_speeded_trial144_chain.wav,2,b,peeded,144,chain,991,correct,NA,Mar 13 2023 14:44:35,Laura,1
630cb,630cb_session2_listb_speeded_trial145_scarecrow.wav,2,b,peeded,145,scarecrow,1110,uncertain,cut off,Mar 13 2023 14:44:57,Laura,1
630cb,630cb_session2_listb_speeded_trial146_face.wav,2,b,peeded,146,face,-1,no_resp,NA,Mar 13 2023 14:45:04,Laura,1
630cb,630cb_session2_listb_speeded_trial147_back.wav,2,b,peeded,147,back,895,correct,NA,Mar 13 2023 14:45:16,Laura,1
630cb,630cb_session2_listb_speeded_trial148_belt.wav,2,b,peeded,148,belt,846,correct,NA,Mar 13 2023 14:45:29,Laura,1
630cb,630cb_session2_listb_speeded_trial149_asparagus.wav,2,b,peeded,149,asparagus,1169,uncertain,cut off,Mar 13 2023 14:46:22,Laura,1
630cb,630cb_session2_listb_speeded_trial150_feather.wav,2,b,peeded,150,feather,809,correct,NA,Mar 13 2023 14:46:36,Laura,1
