Participant_ID,File_Name,Session,List,Type_Trial,Trial_Nbr,Target,RT,Response_Trial,Comment,Date_Correction,Assessor_Name,Processed
5b2a4,5b2a4_session2_listb_speeded_trial001_pirate.wav,2,b,peeded,1,pirate,766,correct,NA,Mar  8 2023 17:47:49,Agnieszka,1
5b2a4,5b2a4_session2_listb_speeded_trial002_glasses.wav,2,b,peeded,2,glasses,609,correct,NA,Mar  8 2023 17:48:06,Agnieszka,1
5b2a4,5b2a4_session2_listb_speeded_trial003_king.wav,2,b,peeded,3,king,-1,no_resp,NA,Mar  8 2023 17:48:13,Agnieszka,1
5b2a4,5b2a4_session2_listb_speeded_trial004_torch.wav,2,b,peeded,4,torch,734,correct,NA,Mar  8 2023 17:48:18,Agnieszka,1
5b2a4,5b2a4_session2_listb_speeded_trial005_door.wav,2,b,peeded,5,door,652,correct,NA,Mar  8 2023 17:48:26,Agnieszka,1
5b2a4,5b2a4_session2_listb_speeded_trial006_feather.wav,2,b,peeded,6,feather,609,correct,NA,Mar  8 2023 17:48:39,Agnieszka,1
5b2a4,5b2a4_session2_listb_speeded_trial007_ring.wav,2,b,peeded,7,ring,916,correct,NA,Mar  8 2023 17:48:46,Agnieszka,1
5b2a4,5b2a4_session2_listb_speeded_trial008_butcher.wav,2,b,peeded,8,butcher,-1,wrong_word,NA,Mar  8 2023 17:48:56,Agnieszka,1
5b2a4,5b2a4_session2_listb_speeded_trial009_sheep.wav,2,b,peeded,9,sheep,-1,no_resp,NA,Mar  8 2023 17:49:03,Agnieszka,1
5b2a4,5b2a4_session2_listb_speeded_trial010_hedgehog.wav,2,b,peeded,10,hedgehog,675,correct,NA,Mar  8 2023 17:49:24,Agnieszka,1
5b2a4,5b2a4_session2_listb_speeded_trial011_farm.wav,2,b,peeded,11,farm,822,correct,NA,Mar  8 2023 17:49:34,Agnieszka,1
5b2a4,5b2a4_session2_listb_speeded_trial012_pizza.wav,2,b,peeded,12,pizza,707,correct,NA,Mar  8 2023 17:49:40,Agnieszka,1
5b2a4,5b2a4_session2_listb_speeded_trial013_coffee.wav,2,b,peeded,13,coffee,749,correct,NA,Mar  8 2023 17:49:54,Agnieszka,1
5b2a4,5b2a4_session2_listb_speeded_trial014_cowboy.wav,2,b,peeded,14,cowboy,-1,no_resp,NA,Mar  8 2023 17:49:59,Agnieszka,1
5b2a4,5b2a4_session2_listb_speeded_trial015_dragon.wav,2,b,peeded,15,dragon,785,correct,NA,Mar  8 2023 17:50:09,Agnieszka,1
5b2a4,5b2a4_session2_listb_speeded_trial016_asparagus.wav,2,b,peeded,16,asparagus,761,correct,NA,Mar  8 2023 17:50:16,Agnieszka,1
5b2a4,5b2a4_session2_listb_speeded_trial017_beard.wav,2,b,peeded,17,beard,739,correct,NA,Mar  8 2023 17:50:22,Agnieszka,1
5b2a4,5b2a4_session2_listb_speeded_trial018_well.wav,2,b,peeded,18,well,670,correct,NA,Mar  8 2023 17:50:28,Agnieszka,1
5b2a4,5b2a4_session2_listb_speeded_trial019_nose.wav,2,b,peeded,19,nose,658,correct,NA,Mar  8 2023 17:50:39,Agnieszka,1
5b2a4,5b2a4_session2_listb_speeded_trial020_shark.wav,2,b,peeded,20,shark,636,correct,NA,Mar  8 2023 17:50:52,Agnieszka,1
5b2a4,5b2a4_session2_listb_speeded_trial021_lemon.wav,2,b,peeded,21,lemon,869,correct,NA,Mar  8 2023 17:51:08,Agnieszka,1
5b2a4,5b2a4_session2_listb_speeded_trial022_hair.wav,2,b,peeded,22,hair,812,correct,NA,Mar  8 2023 17:51:20,Agnieszka,1
5b2a4,5b2a4_session2_listb_speeded_trial023_camera.wav,2,b,peeded,23,camera,712,correct,NA,Mar  8 2023 17:51:30,Agnieszka,1
5b2a4,5b2a4_session2_listb_speeded_trial024_nurse.wav,2,b,peeded,24,nurse,709,correct,NA,Mar  8 2023 17:51:37,Agnieszka,1
5b2a4,5b2a4_session2_listb_speeded_trial025_diamond.wav,2,b,peeded,25,diamond,753,correct,NA,Mar  8 2023 17:51:46,Agnieszka,1
5b2a4,5b2a4_session2_listb_speeded_trial026_calculator.wav,2,b,peeded,26,calculator,732,correct,NA,Mar  8 2023 17:51:54,Agnieszka,1
5b2a4,5b2a4_session2_listb_speeded_trial027_bible.wav,2,b,peeded,27,bible,898,correct,NA,Mar  8 2023 17:52:00,Agnieszka,1
5b2a4,5b2a4_session2_listb_speeded_trial028_strawberry.wav,2,b,peeded,28,strawberry,650,correct,NA,Mar  8 2023 17:52:06,Agnieszka,1
5b2a4,5b2a4_session2_listb_speeded_trial029_dog.wav,2,b,peeded,29,dog,709,correct,NA,Mar  8 2023 17:52:15,Agnieszka,1
5b2a4,5b2a4_session2_listb_speeded_trial030_ankle.wav,2,b,peeded,30,ankle,-1,wrong_word,NA,Mar  8 2023 17:52:21,Agnieszka,1
5b2a4,5b2a4_session2_listb_speeded_trial031_dolphin.wav,2,b,peeded,31,dolphin,1178,correct,NA,Mar  8 2023 17:52:26,Agnieszka,1
5b2a4,5b2a4_session2_listb_speeded_trial032_knee.wav,2,b,peeded,32,knee,802,correct,NA,Mar  8 2023 17:52:32,Agnieszka,1
5b2a4,5b2a4_session2_listb_speeded_trial033_waiter.wav,2,b,peeded,33,waiter,786,correct,NA,Mar  8 2023 17:52:40,Agnieszka,1
5b2a4,5b2a4_session2_listb_speeded_trial034_telephone.wav,2,b,peeded,34,telephone,837,correct,NA,Mar  8 2023 17:52:51,Agnieszka,1
5b2a4,5b2a4_session2_listb_speeded_trial035_foot.wav,2,b,peeded,35,foot,744,correct,NA,Mar  8 2023 17:53:07,Agnieszka,1
5b2a4,5b2a4_session2_listb_speeded_trial036_house.wav,2,b,peeded,36,house,707,correct,NA,Mar  8 2023 17:53:14,Agnieszka,1
5b2a4,5b2a4_session2_listb_speeded_trial037_brain.wav,2,b,peeded,37,brain,695,correct,NA,Mar  8 2023 17:53:20,Agnieszka,1
5b2a4,5b2a4_session2_listb_speeded_trial038_fire.wav,2,b,peeded,38,fire,818,correct,NA,Mar  8 2023 17:53:35,Agnieszka,1
5b2a4,5b2a4_session2_listb_speeded_trial039_parrot.wav,2,b,peeded,39,parrot,810,correct,NA,Mar  8 2023 17:53:40,Agnieszka,1
5b2a4,5b2a4_session2_listb_speeded_trial040_girl.wav,2,b,peeded,40,girl,962,correct,NA,Mar  8 2023 17:53:50,Agnieszka,1
5b2a4,5b2a4_session2_listb_speeded_trial041_handle.wav,2,b,peeded,41,handle,-1,no_resp,NA,Mar  8 2023 17:53:55,Agnieszka,1
5b2a4,5b2a4_session2_listb_speeded_trial042_shirt.wav,2,b,peeded,42,shirt,680,correct,NA,Mar  8 2023 17:54:01,Agnieszka,1
5b2a4,5b2a4_session2_listb_speeded_trial043_cactus.wav,2,b,peeded,43,cactus,-1,no_resp,NA,Mar  8 2023 17:54:07,Agnieszka,1
5b2a4,5b2a4_session2_listb_speeded_trial044_pilot.wav,2,b,peeded,44,pilot,-1,no_resp,NA,Mar  8 2023 17:54:12,Agnieszka,1
5b2a4,5b2a4_session2_listb_speeded_trial045_maze.wav,2,b,peeded,45,maze,-1,wrong_word,NA,Mar  8 2023 17:54:20,Agnieszka,1
5b2a4,5b2a4_session2_listb_speeded_trial046_car.wav,2,b,peeded,46,car,645,correct,NA,Mar  8 2023 17:54:36,Agnieszka,1
5b2a4,5b2a4_session2_listb_speeded_trial047_hand.wav,2,b,peeded,47,hand,628,correct,NA,Mar  8 2023 17:54:45,Agnieszka,1
5b2a4,5b2a4_session2_listb_speeded_trial048_moustache.wav,2,b,peeded,48,moustache,920,correct,NA,Mar  8 2023 17:54:51,Agnieszka,1
5b2a4,5b2a4_session2_listb_speeded_trial049_fist.wav,2,b,peeded,49,fist,807,correct,NA,Mar  8 2023 17:54:56,Agnieszka,1
5b2a4,5b2a4_session2_listb_speeded_trial050_balloon.wav,2,b,peeded,50,balloon,788,correct,NA,Mar  8 2023 17:55:04,Agnieszka,1
5b2a4,5b2a4_session2_listb_speeded_trial051_screwdriver.wav,2,b,peeded,51,screwdriver,-1,no_resp,NA,Mar  8 2023 17:55:11,Agnieszka,1
5b2a4,5b2a4_session2_listb_speeded_trial052_keyboard.wav,2,b,peeded,52,keyboard,712,correct,NA,Mar  8 2023 17:55:18,Agnieszka,1
5b2a4,5b2a4_session2_listb_speeded_trial053_wallet.wav,2,b,peeded,53,wallet,823,correct,NA,Mar  8 2023 17:55:25,Agnieszka,1
5b2a4,5b2a4_session2_listb_speeded_trial054_nun.wav,2,b,peeded,54,nun,940,correct,NA,Mar  8 2023 17:55:31,Agnieszka,1
5b2a4,5b2a4_session2_listb_speeded_trial055_duck.wav,2,b,peeded,55,duck,867,correct,NA,Mar  8 2023 17:55:37,Agnieszka,1
5b2a4,5b2a4_session2_listb_speeded_trial056_lizard.wav,2,b,peeded,56,lizard,754,correct,NA,Mar  8 2023 17:55:44,Agnieszka,1
5b2a4,5b2a4_session2_listb_speeded_trial057_man.wav,2,b,peeded,57,man,827,correct,NA,Mar  8 2023 17:55:49,Agnieszka,1
5b2a4,5b2a4_session2_listb_speeded_trial058_scarf.wav,2,b,peeded,58,scarf,692,correct,NA,Mar  8 2023 17:55:57,Agnieszka,1
5b2a4,5b2a4_session2_listb_speeded_trial059_bin.wav,2,b,peeded,59,bin,818,correct,NA,Mar  8 2023 17:56:01,Agnieszka,1
5b2a4,5b2a4_session2_listb_speeded_trial060_baby.wav,2,b,peeded,60,baby,813,correct,NA,Mar  8 2023 17:56:07,Agnieszka,1
5b2a4,5b2a4_session2_listb_speeded_trial061_face.wav,2,b,peeded,61,face,748,correct,NA,Mar  8 2023 17:56:17,Agnieszka,1
5b2a4,5b2a4_session2_listb_speeded_trial062_mask.wav,2,b,peeded,62,mask,861,correct,NA,Mar  8 2023 17:56:23,Agnieszka,1
5b2a4,5b2a4_session2_listb_speeded_trial063_vein.wav,2,b,peeded,63,vein,871,correct,NA,Mar  8 2023 17:56:30,Agnieszka,1
5b2a4,5b2a4_session2_listb_speeded_trial064_banana.wav,2,b,peeded,64,banana,741,correct,NA,Mar  8 2023 17:56:36,Agnieszka,1
5b2a4,5b2a4_session2_listb_speeded_trial065_lab.wav,2,b,peeded,65,lab,-1,no_resp,NA,Mar  8 2023 17:56:44,Agnieszka,1
5b2a4,5b2a4_session2_listb_speeded_trial066_tank.wav,2,b,peeded,66,tank,-1,no_resp,NA,Mar  8 2023 17:56:51,Agnieszka,1
5b2a4,5b2a4_session2_listb_speeded_trial067_dentist.wav,2,b,peeded,67,dentist,876,correct,NA,Mar  8 2023 17:56:59,Agnieszka,1
5b2a4,5b2a4_session2_listb_speeded_trial068_caravan.wav,2,b,peeded,68,caravan,744,correct,NA,Mar  8 2023 17:57:08,Agnieszka,1
5b2a4,5b2a4_session2_listb_speeded_trial069_devil.wav,2,b,peeded,69,devil,736,correct,NA,Mar  8 2023 17:57:14,Agnieszka,1
5b2a4,5b2a4_session2_listb_speeded_trial070_parachute.wav,2,b,peeded,70,parachute,-1,no_resp,NA,Mar  8 2023 17:57:19,Agnieszka,1
5b2a4,5b2a4_session2_listb_speeded_trial071_trumpet.wav,2,b,peeded,71,trumpet,803,correct,NA,Mar  8 2023 17:57:27,Agnieszka,1
5b2a4,5b2a4_session2_listb_speeded_trial072_choir.wav,2,b,peeded,72,choir,807,correct,NA,Mar  8 2023 17:57:37,Agnieszka,1
5b2a4,5b2a4_session2_listb_speeded_trial073_tooth.wav,2,b,peeded,73,tooth,-1,no_resp,NA,Mar  8 2023 17:57:43,Agnieszka,1
5b2a4,5b2a4_session2_listb_speeded_trial074_cloud.wav,2,b,peeded,74,cloud,904,correct,NA,Mar  8 2023 17:57:56,Agnieszka,1
5b2a4,5b2a4_session2_listb_speeded_trial075_thermometer.wav,2,b,peeded,75,thermometer,977,correct,NA,Mar  8 2023 17:58:03,Agnieszka,1
5b2a4,5b2a4_session2_listb_speeded_trial076_airport.wav,2,b,peeded,76,airport,948,correct,NA,Mar  8 2023 17:58:08,Agnieszka,1
5b2a4,5b2a4_session2_listb_speeded_trial077_boomerang.wav,2,b,peeded,77,boomerang,913,correct,NA,Mar  8 2023 17:58:15,Agnieszka,1
5b2a4,5b2a4_session2_listb_speeded_trial078_scorpion.wav,2,b,peeded,78,scorpion,845,correct,NA,Mar  8 2023 17:58:20,Agnieszka,1
5b2a4,5b2a4_session2_listb_speeded_trial079_dinosaur.wav,2,b,peeded,79,dinosaur,751,correct,NA,Mar  8 2023 17:58:26,Agnieszka,1
5b2a4,5b2a4_session2_listb_speeded_trial080_bed.wav,2,b,peeded,80,bed,788,correct,NA,Mar  8 2023 17:58:33,Agnieszka,1
5b2a4,5b2a4_session2_listb_speeded_trial081_desert.wav,2,b,peeded,81,desert,797,correct,NA,Mar  8 2023 17:58:40,Agnieszka,1
5b2a4,5b2a4_session2_listb_speeded_trial082_heart.wav,2,b,peeded,82,heart,1065,correct,NA,Mar  8 2023 17:58:47,Agnieszka,1
5b2a4,5b2a4_session2_listb_speeded_trial083_cage.wav,2,b,peeded,83,cage,768,correct,NA,Mar  8 2023 17:58:54,Agnieszka,1
5b2a4,5b2a4_session2_listb_speeded_trial084_watch.wav,2,b,peeded,84,watch,680,correct,NA,Mar  8 2023 17:58:59,Agnieszka,1
5b2a4,5b2a4_session2_listb_speeded_trial085_frog.wav,2,b,peeded,85,frog,915,correct,NA,Mar  8 2023 17:59:07,Agnieszka,1
5b2a4,5b2a4_session2_listb_speeded_trial086_crown.wav,2,b,peeded,86,crown,744,correct,NA,Mar  8 2023 17:59:15,Agnieszka,1
5b2a4,5b2a4_session2_listb_speeded_trial087_back.wav,2,b,peeded,87,back,879,correct,NA,Mar  8 2023 17:59:20,Agnieszka,1
5b2a4,5b2a4_session2_listb_speeded_trial088_chair.wav,2,b,peeded,88,chair,1085,correct,NA,Mar  8 2023 17:59:26,Agnieszka,1
5b2a4,5b2a4_session2_listb_speeded_trial089_finger.wav,2,b,peeded,89,finger,758,correct,NA,Mar  8 2023 17:59:35,Agnieszka,1
5b2a4,5b2a4_session2_listb_speeded_trial090_printer.wav,2,b,peeded,90,printer,1147,correct,slightly cut off in the end,Mar  8 2023 17:59:47,Agnieszka,1
5b2a4,5b2a4_session2_listb_speeded_trial091_giraffe.wav,2,b,peeded,91,giraffe,923,correct,NA,Mar  8 2023 17:59:53,Agnieszka,1
5b2a4,5b2a4_session2_listb_speeded_trial092_button.wav,2,b,peeded,92,button,815,correct,NA,Mar  8 2023 17:59:59,Agnieszka,1
5b2a4,5b2a4_session2_listb_speeded_trial093_bat.wav,2,b,peeded,93,bat,729,correct,NA,Mar  8 2023 18:00:04,Agnieszka,1
5b2a4,5b2a4_session2_listb_speeded_trial094_coconut.wav,2,b,peeded,94,coconut,829,correct,NA,Mar  8 2023 18:00:11,Agnieszka,1
5b2a4,5b2a4_session2_listb_speeded_trial095_belt.wav,2,b,peeded,95,belt,829,correct,NA,Mar  8 2023 18:00:17,Agnieszka,1
5b2a4,5b2a4_session2_listb_speeded_trial096_elephant.wav,2,b,peeded,96,elephant,751,correct,NA,Mar  8 2023 18:00:29,Agnieszka,1
5b2a4,5b2a4_session2_listb_speeded_trial097_honey.wav,2,b,peeded,97,honey,719,correct,NA,Mar  8 2023 18:00:39,Agnieszka,1
5b2a4,5b2a4_session2_listb_speeded_trial098_condom.wav,2,b,peeded,98,condom,842,correct,NA,Mar  8 2023 18:00:44,Agnieszka,1
5b2a4,5b2a4_session2_listb_speeded_trial099_volcano.wav,2,b,peeded,99,volcano,1038,correct,NA,Mar  8 2023 18:00:52,Agnieszka,1
5b2a4,5b2a4_session2_listb_speeded_trial100_spider.wav,2,b,peeded,100,spider,692,correct,NA,Mar  8 2023 18:00:57,Agnieszka,1
5b2a4,5b2a4_session2_listb_speeded_trial101_road.wav,2,b,peeded,101,road,667,correct,NA,Mar  8 2023 18:01:09,Agnieszka,1
5b2a4,5b2a4_session2_listb_speeded_trial102_cigarette.wav,2,b,peeded,102,cigarette,658,correct,NA,Mar  8 2023 18:01:16,Agnieszka,1
5b2a4,5b2a4_session2_listb_speeded_trial103_skateboard.wav,2,b,peeded,103,skateboard,668,correct,NA,Mar  8 2023 18:01:23,Agnieszka,1
5b2a4,5b2a4_session2_listb_speeded_trial104_leaf.wav,2,b,peeded,104,leaf,638,correct,NA,Mar  8 2023 18:01:31,Agnieszka,1
5b2a4,5b2a4_session2_listb_speeded_trial105_needle.wav,2,b,peeded,105,needle,1156,correct,NA,Mar  8 2023 18:01:37,Agnieszka,1
5b2a4,5b2a4_session2_listb_speeded_trial106_pool.wav,2,b,peeded,106,pool,788,correct,NA,Mar  8 2023 18:01:43,Agnieszka,1
5b2a4,5b2a4_session2_listb_speeded_trial107_lion.wav,2,b,peeded,107,lion,739,correct,NA,Mar  8 2023 18:01:49,Agnieszka,1
5b2a4,5b2a4_session2_listb_speeded_trial108_bra.wav,2,b,peeded,108,bra,668,correct,NA,Mar  8 2023 18:02:00,Agnieszka,1
5b2a4,5b2a4_session2_listb_speeded_trial109_bedroom.wav,2,b,peeded,109,bedroom,741,correct,NA,Mar  8 2023 18:02:08,Agnieszka,1
5b2a4,5b2a4_session2_listb_speeded_trial110_eye.wav,2,b,peeded,110,eye,665,correct,NA,Mar  8 2023 18:02:14,Agnieszka,1
5b2a4,5b2a4_session2_listb_speeded_trial111_fruit.wav,2,b,peeded,111,fruit,775,correct,NA,Mar  8 2023 18:02:36,Agnieszka,1
5b2a4,5b2a4_session2_listb_speeded_trial112_burger.wav,2,b,peeded,112,burger,770,correct,NA,Mar  8 2023 18:02:42,Agnieszka,1
5b2a4,5b2a4_session2_listb_speeded_trial113_ambulance.wav,2,b,peeded,113,ambulance,700,correct,NA,Mar  8 2023 18:02:47,Agnieszka,1
5b2a4,5b2a4_session2_listb_speeded_trial114_calendar.wav,2,b,peeded,114,calendar,886,correct,NA,Mar  8 2023 18:02:53,Agnieszka,1
5b2a4,5b2a4_session2_listb_speeded_trial115_football.wav,2,b,peeded,115,football,-1,wrong_word,NA,Mar  8 2023 18:03:05,Agnieszka,1
5b2a4,5b2a4_session2_listb_speeded_trial116_sink.wav,2,b,peeded,116,sink,636,correct,NA,Mar  8 2023 18:03:11,Agnieszka,1
5b2a4,5b2a4_session2_listb_speeded_trial117_egg.wav,2,b,peeded,117,egg,763,correct,NA,Mar  8 2023 18:03:17,Agnieszka,1
5b2a4,5b2a4_session2_listb_speeded_trial118_umbrella.wav,2,b,peeded,118,umbrella,658,correct,NA,Mar  8 2023 18:03:23,Agnieszka,1
5b2a4,5b2a4_session2_listb_speeded_trial119_iron.wav,2,b,peeded,119,iron,684,correct,NA,Mar  8 2023 18:03:29,Agnieszka,1
5b2a4,5b2a4_session2_listb_speeded_trial120_shadow.wav,2,b,peeded,120,shadow,770,correct,NA,Mar  8 2023 18:03:34,Agnieszka,1
5b2a4,5b2a4_session2_listb_speeded_trial121_apron.wav,2,b,peeded,121,apron,695,correct,NA,Mar  8 2023 18:03:40,Agnieszka,1
5b2a4,5b2a4_session2_listb_speeded_trial122_penguin.wav,2,b,peeded,122,penguin,680,correct,NA,Mar  8 2023 18:03:46,Agnieszka,1
5b2a4,5b2a4_session2_listb_speeded_trial123_sock.wav,2,b,peeded,123,sock,591,correct,NA,Mar  8 2023 18:03:53,Agnieszka,1
5b2a4,5b2a4_session2_listb_speeded_trial124_guitar.wav,2,b,peeded,124,guitar,680,correct,NA,Mar  8 2023 18:04:00,Agnieszka,1
5b2a4,5b2a4_session2_listb_speeded_trial125_mirror.wav,2,b,peeded,125,mirror,697,correct,NA,Mar  8 2023 18:04:09,Agnieszka,1
5b2a4,5b2a4_session2_listb_speeded_trial126_microphone.wav,2,b,peeded,126,microphone,832,correct,NA,Mar  8 2023 18:04:16,Agnieszka,1
5b2a4,5b2a4_session2_listb_speeded_trial127_skeleton.wav,2,b,peeded,127,skeleton,694,correct,NA,Mar  8 2023 18:04:23,Agnieszka,1
5b2a4,5b2a4_session2_listb_speeded_trial128_gun.wav,2,b,peeded,128,gun,721,correct,NA,Mar  8 2023 18:04:29,Agnieszka,1
5b2a4,5b2a4_session2_listb_speeded_trial129_roof.wav,2,b,peeded,129,roof,989,correct,NA,Mar  8 2023 18:04:35,Agnieszka,1
5b2a4,5b2a4_session2_listb_speeded_trial130_snail.wav,2,b,peeded,130,snail,623,correct,NA,Mar  8 2023 18:04:41,Agnieszka,1
5b2a4,5b2a4_session2_listb_speeded_trial131_spoon.wav,2,b,peeded,131,spoon,566,correct,NA,Mar  8 2023 18:04:48,Agnieszka,1
5b2a4,5b2a4_session2_listb_speeded_trial132_earring.wav,2,b,peeded,132,earring,830,correct,NA,Mar  8 2023 18:04:53,Agnieszka,1
5b2a4,5b2a4_session2_listb_speeded_trial133_fan.wav,2,b,peeded,133,fan,660,correct,NA,Mar  8 2023 18:05:02,Agnieszka,1
5b2a4,5b2a4_session2_listb_speeded_trial134_harp.wav,2,b,peeded,134,harp,-1,no_resp,NA,Mar  8 2023 18:05:07,Agnieszka,1
5b2a4,5b2a4_session2_listb_speeded_trial135_cone.wav,2,b,peeded,135,cone,810,correct,NA,Mar  8 2023 18:05:11,Agnieszka,1
5b2a4,5b2a4_session2_listb_speeded_trial136_swimming.wav,2,b,peeded,136,swimming,645,correct,NA,Mar  8 2023 18:05:17,Agnieszka,1
5b2a4,5b2a4_session2_listb_speeded_trial137_television.wav,2,b,peeded,137,television,668,correct,NA,Mar  8 2023 18:05:24,Agnieszka,1
5b2a4,5b2a4_session2_listb_speeded_trial138_skull.wav,2,b,peeded,138,skull,722,correct,NA,Mar  8 2023 18:05:30,Agnieszka,1
5b2a4,5b2a4_session2_listb_speeded_trial139_coffin.wav,2,b,peeded,139,coffin,737,correct,NA,Mar  8 2023 18:05:35,Agnieszka,1
5b2a4,5b2a4_session2_listb_speeded_trial140_greenhouse.wav,2,b,peeded,140,greenhouse,1033,correct,slightly cut off in the end,Mar  8 2023 18:05:47,Agnieszka,1
5b2a4,5b2a4_session2_listb_speeded_trial141_scarecrow.wav,2,b,peeded,141,scarecrow,719,correct,NA,Mar  8 2023 18:05:52,Agnieszka,1
5b2a4,5b2a4_session2_listb_speeded_trial142_jar.wav,2,b,peeded,142,jar,894,correct,NA,Mar  8 2023 18:05:57,Agnieszka,1
5b2a4,5b2a4_session2_listb_speeded_trial143_broom.wav,2,b,peeded,143,broom,1083,correct,NA,Mar  8 2023 18:06:10,Agnieszka,1
5b2a4,5b2a4_session2_listb_speeded_trial144_cannon.wav,2,b,peeded,144,cannon,-1,no_resp,NA,Mar  8 2023 18:06:15,Agnieszka,1
5b2a4,5b2a4_session2_listb_speeded_trial145_pumpkin.wav,2,b,peeded,145,pumpkin,955,correct,NA,Mar  8 2023 18:06:21,Agnieszka,1
5b2a4,5b2a4_session2_listb_speeded_trial146_stapler.wav,2,b,peeded,146,stapler,663,correct,NA,Mar  8 2023 18:06:27,Agnieszka,1
5b2a4,5b2a4_session2_listb_speeded_trial147_witch.wav,2,b,peeded,147,witch,872,correct,NA,Mar  8 2023 18:06:32,Agnieszka,1
5b2a4,5b2a4_session2_listb_speeded_trial148_chain.wav,2,b,peeded,148,chain,758,correct,NA,Mar  8 2023 18:06:38,Agnieszka,1
5b2a4,5b2a4_session2_listb_speeded_trial149_glass.wav,2,b,peeded,149,glass,-1,wrong_word,NA,Mar  8 2023 18:06:46,Agnieszka,1
5b2a4,5b2a4_session2_listb_speeded_trial150_broccoli.wav,2,b,peeded,150,broccoli,877,correct,NA,Mar  8 2023 18:06:52,Agnieszka,1
