Participant_ID,File_Name,Session,List,Type_Trial,Trial_Nbr,Target,RT,Response_Trial,Comment,Date_Correction,Assessor_Name,Processed
5d593,5d593_session2_listb_speeded_trial001_banana.wav,2,b,peeded,1,banana,667,correct,NA,Apr  4 2023 09:58:31,Agnieszka,1
5d593,5d593_session2_listb_speeded_trial002_belt.wav,2,b,peeded,2,belt,751,correct,NA,Apr  4 2023 09:58:37,Agnieszka,1
5d593,5d593_session2_listb_speeded_trial003_cone.wav,2,b,peeded,3,cone,672,correct,NA,Apr  4 2023 09:58:49,Agnieszka,1
5d593,5d593_session2_listb_speeded_trial004_parrot.wav,2,b,peeded,4,parrot,812,correct,NA,Apr  4 2023 09:58:56,Agnieszka,1
5d593,5d593_session2_listb_speeded_trial005_elephant.wav,2,b,peeded,5,elephant,711,correct,NA,Apr  4 2023 09:59:04,Agnieszka,1
5d593,5d593_session2_listb_speeded_trial006_apron.wav,2,b,peeded,6,apron,692,correct,NA,Apr  4 2023 09:59:10,Agnieszka,1
5d593,5d593_session2_listb_speeded_trial007_volcano.wav,2,b,peeded,7,volcano,746,correct,NA,Apr  4 2023 09:59:20,Agnieszka,1
5d593,5d593_session2_listb_speeded_trial008_nurse.wav,2,b,peeded,8,nurse,913,correct,NA,Apr  4 2023 09:59:27,Agnieszka,1
5d593,5d593_session2_listb_speeded_trial009_diamond.wav,2,b,peeded,9,diamond,702,correct,NA,Apr  4 2023 09:59:34,Agnieszka,1
5d593,5d593_session2_listb_speeded_trial010_spoon.wav,2,b,peeded,10,spoon,650,correct,NA,Apr  4 2023 09:59:39,Agnieszka,1
5d593,5d593_session2_listb_speeded_trial011_maze.wav,2,b,peeded,11,maze,668,correct,NA,Apr  4 2023 09:59:46,Agnieszka,1
5d593,5d593_session2_listb_speeded_trial012_dragon.wav,2,b,peeded,12,dragon,758,correct,NA,Apr  4 2023 09:59:52,Agnieszka,1
5d593,5d593_session2_listb_speeded_trial013_cowboy.wav,2,b,peeded,13,cowboy,748,correct,NA,Apr  4 2023 09:59:59,Agnieszka,1
5d593,5d593_session2_listb_speeded_trial014_farm.wav,2,b,peeded,14,farm,823,correct,NA,Apr  4 2023 10:00:04,Agnieszka,1
5d593,5d593_session2_listb_speeded_trial015_ambulance.wav,2,b,peeded,15,ambulance,648,correct,NA,Apr  4 2023 10:00:11,Agnieszka,1
5d593,5d593_session2_listb_speeded_trial016_penguin.wav,2,b,peeded,16,penguin,640,correct,NA,Apr  4 2023 10:00:18,Agnieszka,1
5d593,5d593_session2_listb_speeded_trial017_finger.wav,2,b,peeded,17,finger,660,correct,NA,Apr  4 2023 10:00:24,Agnieszka,1
5d593,5d593_session2_listb_speeded_trial018_lizard.wav,2,b,peeded,18,lizard,700,correct,NA,Apr  4 2023 10:00:30,Agnieszka,1
5d593,5d593_session2_listb_speeded_trial019_beard.wav,2,b,peeded,19,beard,-1,wrong_word,NA,Apr  4 2023 10:00:36,Agnieszka,1
5d593,5d593_session2_listb_speeded_trial020_harp.wav,2,b,peeded,20,harp,716,correct,NA,Apr  4 2023 10:00:42,Agnieszka,1
5d593,5d593_session2_listb_speeded_trial021_stapler.wav,2,b,peeded,21,stapler,665,correct,NA,Apr  4 2023 10:00:49,Agnieszka,1
5d593,5d593_session2_listb_speeded_trial022_tank.wav,2,b,peeded,22,tank,700,correct,NA,Apr  4 2023 10:00:55,Agnieszka,1
5d593,5d593_session2_listb_speeded_trial023_ankle.wav,2,b,peeded,23,ankle,901,correct,NA,Apr  4 2023 10:01:03,Agnieszka,1
5d593,5d593_session2_listb_speeded_trial024_cactus.wav,2,b,peeded,24,cactus,739,correct,NA,Apr  4 2023 10:01:08,Agnieszka,1
5d593,5d593_session2_listb_speeded_trial025_bat.wav,2,b,peeded,25,bat,714,correct,NA,Apr  4 2023 10:01:13,Agnieszka,1
5d593,5d593_session2_listb_speeded_trial026_burger.wav,2,b,peeded,26,burger,758,correct,NA,Apr  4 2023 10:01:19,Agnieszka,1
5d593,5d593_session2_listb_speeded_trial027_printer.wav,2,b,peeded,27,printer,889,correct,NA,Apr  4 2023 10:01:24,Agnieszka,1
5d593,5d593_session2_listb_speeded_trial028_lemon.wav,2,b,peeded,28,lemon,884,correct,NA,Apr  4 2023 10:01:31,Agnieszka,1
5d593,5d593_session2_listb_speeded_trial029_mask.wav,2,b,peeded,29,mask,810,correct,NA,Apr  4 2023 10:01:38,Agnieszka,1
5d593,5d593_session2_listb_speeded_trial030_egg.wav,2,b,peeded,30,egg,808,correct,NA,Apr  4 2023 10:01:45,Agnieszka,1
5d593,5d593_session2_listb_speeded_trial031_watch.wav,2,b,peeded,31,watch,780,correct,NA,Apr  4 2023 10:01:51,Agnieszka,1
5d593,5d593_session2_listb_speeded_trial032_trumpet.wav,2,b,peeded,32,trumpet,845,correct,NA,Apr  4 2023 10:01:57,Agnieszka,1
5d593,5d593_session2_listb_speeded_trial033_caravan.wav,2,b,peeded,33,caravan,739,correct,NA,Apr  4 2023 10:02:06,Agnieszka,1
5d593,5d593_session2_listb_speeded_trial034_screwdriver.wav,2,b,peeded,34,screwdriver,712,correct,NA,Apr  4 2023 10:02:12,Agnieszka,1
5d593,5d593_session2_listb_speeded_trial035_calculator.wav,2,b,peeded,35,calculator,753,correct,NA,Apr  4 2023 10:02:18,Agnieszka,1
5d593,5d593_session2_listb_speeded_trial036_dolphin.wav,2,b,peeded,36,dolphin,773,correct,NA,Apr  4 2023 10:02:23,Agnieszka,1
5d593,5d593_session2_listb_speeded_trial037_hedgehog.wav,2,b,peeded,37,hedgehog,716,correct,NA,Apr  4 2023 10:02:31,Agnieszka,1
5d593,5d593_session2_listb_speeded_trial038_door.wav,2,b,peeded,38,door,781,correct,NA,Apr  4 2023 10:02:40,Agnieszka,1
5d593,5d593_session2_listb_speeded_trial039_desert.wav,2,b,peeded,39,desert,798,correct,NA,Apr  4 2023 10:02:46,Agnieszka,1
5d593,5d593_session2_listb_speeded_trial040_keyboard.wav,2,b,peeded,40,keyboard,800,correct,NA,Apr  4 2023 10:02:51,Agnieszka,1
5d593,5d593_session2_listb_speeded_trial041_fire.wav,2,b,peeded,41,fire,685,correct,NA,Apr  4 2023 10:02:57,Agnieszka,1
5d593,5d593_session2_listb_speeded_trial042_knee.wav,2,b,peeded,42,knee,818,correct,NA,Apr  4 2023 10:03:05,Agnieszka,1
5d593,5d593_session2_listb_speeded_trial043_guitar.wav,2,b,peeded,43,guitar,699,correct,NA,Apr  4 2023 10:03:12,Agnieszka,1
5d593,5d593_session2_listb_speeded_trial044_bra.wav,2,b,peeded,44,bra,756,correct,NA,Apr  4 2023 10:03:19,Agnieszka,1
5d593,5d593_session2_listb_speeded_trial045_bible.wav,2,b,peeded,45,bible,734,correct,NA,Apr  4 2023 10:03:25,Agnieszka,1
5d593,5d593_session2_listb_speeded_trial046_car.wav,2,b,peeded,46,car,668,correct,NA,Apr  4 2023 10:03:30,Agnieszka,1
5d593,5d593_session2_listb_speeded_trial047_crown.wav,2,b,peeded,47,crown,724,correct,NA,Apr  4 2023 10:03:37,Agnieszka,1
5d593,5d593_session2_listb_speeded_trial048_bin.wav,2,b,peeded,48,bin,704,correct,NA,Apr  4 2023 10:03:43,Agnieszka,1
5d593,5d593_session2_listb_speeded_trial049_gun.wav,2,b,peeded,49,gun,744,correct,NA,Apr  4 2023 10:03:48,Agnieszka,1
5d593,5d593_session2_listb_speeded_trial050_cannon.wav,2,b,peeded,50,cannon,768,correct,NA,Apr  4 2023 10:03:54,Agnieszka,1
5d593,5d593_session2_listb_speeded_trial051_torch.wav,2,b,peeded,51,torch,743,correct,NA,Apr  4 2023 10:04:01,Agnieszka,1
5d593,5d593_session2_listb_speeded_trial052_jar.wav,2,b,peeded,52,jar,822,correct,NA,Apr  4 2023 10:04:07,Agnieszka,1
5d593,5d593_session2_listb_speeded_trial053_king.wav,2,b,peeded,53,king,761,correct,NA,Apr  4 2023 10:04:13,Agnieszka,1
5d593,5d593_session2_listb_speeded_trial054_calendar.wav,2,b,peeded,54,calendar,770,correct,NA,Apr  4 2023 10:04:22,Agnieszka,1
5d593,5d593_session2_listb_speeded_trial055_sock.wav,2,b,peeded,55,sock,867,correct,NA,Apr  4 2023 10:04:35,Agnieszka,1
5d593,5d593_session2_listb_speeded_trial056_iron.wav,2,b,peeded,56,iron,832,correct,NA,Apr  4 2023 10:04:46,Agnieszka,1
5d593,5d593_session2_listb_speeded_trial057_skeleton.wav,2,b,peeded,57,skeleton,650,correct,NA,Apr  4 2023 10:04:52,Agnieszka,1
5d593,5d593_session2_listb_speeded_trial058_shadow.wav,2,b,peeded,58,shadow,770,correct,NA,Apr  4 2023 10:04:58,Agnieszka,1
5d593,5d593_session2_listb_speeded_trial059_shirt.wav,2,b,peeded,59,shirt,771,correct,NA,Apr  4 2023 10:05:03,Agnieszka,1
5d593,5d593_session2_listb_speeded_trial060_greenhouse.wav,2,b,peeded,60,greenhouse,813,correct,NA,Apr  4 2023 10:05:15,Agnieszka,1
5d593,5d593_session2_listb_speeded_trial061_ring.wav,2,b,peeded,61,ring,768,correct,NA,Apr  4 2023 10:05:25,Agnieszka,1
5d593,5d593_session2_listb_speeded_trial062_cloud.wav,2,b,peeded,62,cloud,803,correct,NA,Apr  4 2023 10:05:32,Agnieszka,1
5d593,5d593_session2_listb_speeded_trial063_devil.wav,2,b,peeded,63,devil,758,correct,NA,Apr  4 2023 10:05:38,Agnieszka,1
5d593,5d593_session2_listb_speeded_trial064_shark.wav,2,b,peeded,64,shark,845,correct,NA,Apr  4 2023 10:05:45,Agnieszka,1
5d593,5d593_session2_listb_speeded_trial065_baby.wav,2,b,peeded,65,baby,818,correct,NA,Apr  4 2023 10:06:05,Agnieszka,1
5d593,5d593_session2_listb_speeded_trial066_witch.wav,2,b,peeded,66,witch,744,correct,NA,Apr  4 2023 10:06:11,Agnieszka,1
5d593,5d593_session2_listb_speeded_trial067_hair.wav,2,b,peeded,67,hair,1137,correct,NA,Apr  4 2023 10:06:17,Agnieszka,1
5d593,5d593_session2_listb_speeded_trial068_face.wav,2,b,peeded,68,face,793,correct,NA,Apr  4 2023 10:06:23,Agnieszka,1
5d593,5d593_session2_listb_speeded_trial069_honey.wav,2,b,peeded,69,honey,734,correct,NA,Apr  4 2023 10:06:28,Agnieszka,1
5d593,5d593_session2_listb_speeded_trial070_fruit.wav,2,b,peeded,70,fruit,704,correct,NA,Apr  4 2023 10:06:33,Agnieszka,1
5d593,5d593_session2_listb_speeded_trial071_pilot.wav,2,b,peeded,71,pilot,803,correct,NA,Apr  4 2023 10:06:38,Agnieszka,1
5d593,5d593_session2_listb_speeded_trial072_skull.wav,2,b,peeded,72,skull,662,correct,NA,Apr  4 2023 10:06:48,Agnieszka,1
5d593,5d593_session2_listb_speeded_trial073_snail.wav,2,b,peeded,73,snail,657,correct,NA,Apr  4 2023 10:06:55,Agnieszka,1
5d593,5d593_session2_listb_speeded_trial074_coffee.wav,2,b,peeded,74,coffee,812,correct,NA,Apr  4 2023 10:07:07,Agnieszka,1
5d593,5d593_session2_listb_speeded_trial075_roof.wav,2,b,peeded,75,roof,817,correct,NA,Apr  4 2023 10:07:16,Agnieszka,1
5d593,5d593_session2_listb_speeded_trial076_bedroom.wav,2,b,peeded,76,bedroom,859,correct,NA,Apr  4 2023 10:07:22,Agnieszka,1
5d593,5d593_session2_listb_speeded_trial077_airport.wav,2,b,peeded,77,airport,832,correct,NA,Apr  4 2023 10:07:28,Agnieszka,1
5d593,5d593_session2_listb_speeded_trial078_cigarette.wav,2,b,peeded,78,cigarette,655,correct,NA,Apr  4 2023 10:07:34,Agnieszka,1
5d593,5d593_session2_listb_speeded_trial079_heart.wav,2,b,peeded,79,heart,638,correct,NA,Apr  4 2023 10:07:42,Agnieszka,1
5d593,5d593_session2_listb_speeded_trial080_glasses.wav,2,b,peeded,80,glasses,689,correct,NA,Apr  4 2023 10:07:48,Agnieszka,1
5d593,5d593_session2_listb_speeded_trial081_road.wav,2,b,peeded,81,road,736,correct,NA,Apr  4 2023 10:07:54,Agnieszka,1
5d593,5d593_session2_listb_speeded_trial082_earring.wav,2,b,peeded,82,earring,805,correct,NA,Apr  4 2023 10:08:04,Agnieszka,1
5d593,5d593_session2_listb_speeded_trial083_cage.wav,2,b,peeded,83,cage,744,correct,NA,Apr  4 2023 10:08:10,Agnieszka,1
5d593,5d593_session2_listb_speeded_trial084_chair.wav,2,b,peeded,84,chair,633,correct,NA,Apr  4 2023 10:08:18,Agnieszka,1
5d593,5d593_session2_listb_speeded_trial085_pumpkin.wav,2,b,peeded,85,pumpkin,673,correct,NA,Apr  4 2023 10:08:23,Agnieszka,1
5d593,5d593_session2_listb_speeded_trial086_tooth.wav,2,b,peeded,86,tooth,700,correct,NA,Apr  4 2023 10:08:30,Agnieszka,1
5d593,5d593_session2_listb_speeded_trial087_feather.wav,2,b,peeded,87,feather,657,correct,NA,Apr  4 2023 10:08:37,Agnieszka,1
5d593,5d593_session2_listb_speeded_trial088_frog.wav,2,b,peeded,88,frog,748,correct,NA,Apr  4 2023 10:08:50,Agnieszka,1
5d593,5d593_session2_listb_speeded_trial089_thermometer.wav,2,b,peeded,89,thermometer,1179,correct,slightly cut off,Apr  4 2023 10:09:00,Agnieszka,1
5d593,5d593_session2_listb_speeded_trial090_umbrella.wav,2,b,peeded,90,umbrella,756,correct,NA,Apr  4 2023 10:09:09,Agnieszka,1
5d593,5d593_session2_listb_speeded_trial091_fist.wav,2,b,peeded,91,fist,798,correct,NA,Apr  4 2023 10:09:25,Agnieszka,1
5d593,5d593_session2_listb_speeded_trial092_dog.wav,2,b,peeded,92,dog,731,correct,NA,Apr  4 2023 10:09:42,Agnieszka,1
5d593,5d593_session2_listb_speeded_trial093_spider.wav,2,b,peeded,93,spider,646,correct,NA,Apr  4 2023 10:09:49,Agnieszka,1
5d593,5d593_session2_listb_speeded_trial094_sheep.wav,2,b,peeded,94,sheep,621,correct,NA,Apr  4 2023 10:09:55,Agnieszka,1
5d593,5d593_session2_listb_speeded_trial095_parachute.wav,2,b,peeded,95,parachute,962,correct,NA,Apr  4 2023 10:10:02,Agnieszka,1
5d593,5d593_session2_listb_speeded_trial096_eye.wav,2,b,peeded,96,eye,918,correct,NA,Apr  4 2023 10:10:07,Agnieszka,1
5d593,5d593_session2_listb_speeded_trial097_scarecrow.wav,2,b,peeded,97,scarecrow,830,correct,NA,Apr  4 2023 10:10:15,Agnieszka,1
5d593,5d593_session2_listb_speeded_trial098_fan.wav,2,b,peeded,98,fan,662,correct,NA,Apr  4 2023 10:10:20,Agnieszka,1
5d593,5d593_session2_listb_speeded_trial099_vein.wav,2,b,peeded,99,vein,802,correct,NA,Apr  4 2023 10:10:28,Agnieszka,1
5d593,5d593_session2_listb_speeded_trial100_hand.wav,2,b,peeded,100,hand,680,correct,NA,Apr  4 2023 10:10:33,Agnieszka,1
5d593,5d593_session2_listb_speeded_trial101_foot.wav,2,b,peeded,101,foot,645,correct,NA,Apr  4 2023 10:10:45,Agnieszka,1
5d593,5d593_session2_listb_speeded_trial102_sink.wav,2,b,peeded,102,sink,672,correct,NA,Apr  4 2023 10:10:51,Agnieszka,1
5d593,5d593_session2_listb_speeded_trial103_condom.wav,2,b,peeded,103,condom,736,correct,NA,Apr  4 2023 10:10:57,Agnieszka,1
5d593,5d593_session2_listb_speeded_trial104_telephone.wav,2,b,peeded,104,telephone,874,correct,NA,Apr  4 2023 10:11:04,Agnieszka,1
5d593,5d593_session2_listb_speeded_trial105_bed.wav,2,b,peeded,105,bed,739,correct,NA,Apr  4 2023 10:11:11,Agnieszka,1
5d593,5d593_session2_listb_speeded_trial106_man.wav,2,b,peeded,106,man,643,correct,NA,Apr  4 2023 10:11:17,Agnieszka,1
5d593,5d593_session2_listb_speeded_trial107_swimming.wav,2,b,peeded,107,swimming,685,correct,NA,Apr  4 2023 10:11:23,Agnieszka,1
5d593,5d593_session2_listb_speeded_trial108_pirate.wav,2,b,peeded,108,pirate,758,correct,NA,Apr  4 2023 10:11:29,Agnieszka,1
5d593,5d593_session2_listb_speeded_trial109_leaf.wav,2,b,peeded,109,leaf,950,correct,NA,Apr  4 2023 10:11:34,Agnieszka,1
5d593,5d593_session2_listb_speeded_trial110_moustache.wav,2,b,peeded,110,moustache,756,correct,NA,Apr  4 2023 10:11:42,Agnieszka,1
5d593,5d593_session2_listb_speeded_trial111_dinosaur.wav,2,b,peeded,111,dinosaur,827,correct,NA,Apr  4 2023 10:11:47,Agnieszka,1
5d593,5d593_session2_listb_speeded_trial112_button.wav,2,b,peeded,112,button,707,correct,NA,Apr  4 2023 10:11:55,Agnieszka,1
5d593,5d593_session2_listb_speeded_trial113_camera.wav,2,b,peeded,113,camera,658,correct,NA,Apr  4 2023 10:12:01,Agnieszka,1
5d593,5d593_session2_listb_speeded_trial114_television.wav,2,b,peeded,114,television,-1,wrong_word,NA,Apr  4 2023 10:12:09,Agnieszka,1
5d593,5d593_session2_listb_speeded_trial115_scarf.wav,2,b,peeded,115,scarf,662,correct,NA,Apr  4 2023 10:12:19,Agnieszka,1
5d593,5d593_session2_listb_speeded_trial116_strawberry.wav,2,b,peeded,116,strawberry,604,correct,NA,Apr  4 2023 10:12:35,Agnieszka,1
5d593,5d593_session2_listb_speeded_trial117_back.wav,2,b,peeded,117,back,744,correct,NA,Apr  4 2023 10:12:41,Agnieszka,1
5d593,5d593_session2_listb_speeded_trial118_lab.wav,2,b,peeded,118,lab,785,correct,NA,Apr  4 2023 10:12:47,Agnieszka,1
5d593,5d593_session2_listb_speeded_trial119_handle.wav,2,b,peeded,119,handle,872,correct,NA,Apr  4 2023 10:12:53,Agnieszka,1
5d593,5d593_session2_listb_speeded_trial120_boomerang.wav,2,b,peeded,120,boomerang,770,correct,NA,Apr  4 2023 10:12:59,Agnieszka,1
5d593,5d593_session2_listb_speeded_trial121_scorpion.wav,2,b,peeded,121,scorpion,650,correct,NA,Apr  4 2023 10:13:06,Agnieszka,1
5d593,5d593_session2_listb_speeded_trial122_butcher.wav,2,b,peeded,122,butcher,862,correct,NA,Apr  4 2023 10:13:14,Agnieszka,1
5d593,5d593_session2_listb_speeded_trial123_brain.wav,2,b,peeded,123,brain,692,correct,NA,Apr  4 2023 10:13:20,Agnieszka,1
5d593,5d593_session2_listb_speeded_trial124_skateboard.wav,2,b,peeded,124,skateboard,582,correct,NA,Apr  4 2023 10:13:25,Agnieszka,1
5d593,5d593_session2_listb_speeded_trial125_football.wav,2,b,peeded,125,football,604,correct,NA,Apr  4 2023 10:13:34,Agnieszka,1
5d593,5d593_session2_listb_speeded_trial126_broccoli.wav,2,b,peeded,126,broccoli,842,correct,NA,Apr  4 2023 10:13:43,Agnieszka,1
5d593,5d593_session2_listb_speeded_trial127_wallet.wav,2,b,peeded,127,wallet,766,correct,NA,Apr  4 2023 10:13:50,Agnieszka,1
5d593,5d593_session2_listb_speeded_trial128_glass.wav,2,b,peeded,128,glass,711,correct,NA,Apr  4 2023 10:13:56,Agnieszka,1
5d593,5d593_session2_listb_speeded_trial129_chain.wav,2,b,peeded,129,chain,650,correct,NA,Apr  4 2023 10:14:03,Agnieszka,1
5d593,5d593_session2_listb_speeded_trial130_coffin.wav,2,b,peeded,130,coffin,687,correct,NA,Apr  4 2023 10:14:11,Agnieszka,1
5d593,5d593_session2_listb_speeded_trial131_pool.wav,2,b,peeded,131,pool,778,correct,NA,Apr  4 2023 10:14:19,Agnieszka,1
5d593,5d593_session2_listb_speeded_trial132_pizza.wav,2,b,peeded,132,pizza,648,correct,NA,Apr  4 2023 10:14:31,Agnieszka,1
5d593,5d593_session2_listb_speeded_trial133_waiter.wav,2,b,peeded,133,waiter,778,correct,NA,Apr  4 2023 10:14:39,Agnieszka,1
5d593,5d593_session2_listb_speeded_trial134_duck.wav,2,b,peeded,134,duck,724,correct,NA,Apr  4 2023 10:14:46,Agnieszka,1
5d593,5d593_session2_listb_speeded_trial135_nose.wav,2,b,peeded,135,nose,628,correct,NA,Apr  4 2023 10:14:52,Agnieszka,1
5d593,5d593_session2_listb_speeded_trial136_microphone.wav,2,b,peeded,136,microphone,678,correct,NA,Apr  4 2023 10:15:02,Agnieszka,1
5d593,5d593_session2_listb_speeded_trial137_broom.wav,2,b,peeded,137,broom,726,correct,NA,Apr  4 2023 10:15:15,Agnieszka,1
5d593,5d593_session2_listb_speeded_trial138_giraffe.wav,2,b,peeded,138,giraffe,653,correct,NA,Apr  4 2023 10:15:23,Agnieszka,1
5d593,5d593_session2_listb_speeded_trial139_nun.wav,2,b,peeded,139,nun,-1,wrong_word,NA,Apr  4 2023 10:15:28,Agnieszka,1
5d593,5d593_session2_listb_speeded_trial140_dentist.wav,2,b,peeded,140,dentist,-1,disfluency,NA,Apr  4 2023 10:15:35,Agnieszka,1
5d593,5d593_session2_listb_speeded_trial141_lion.wav,2,b,peeded,141,lion,695,correct,NA,Apr  4 2023 10:15:45,Agnieszka,1
5d593,5d593_session2_listb_speeded_trial142_mirror.wav,2,b,peeded,142,mirror,889,correct,NA,Apr  4 2023 10:15:51,Agnieszka,1
5d593,5d593_session2_listb_speeded_trial143_well.wav,2,b,peeded,143,well,716,correct,NA,Apr  4 2023 10:16:02,Agnieszka,1
5d593,5d593_session2_listb_speeded_trial144_house.wav,2,b,peeded,144,house,678,correct,NA,Apr  4 2023 10:16:13,Agnieszka,1
5d593,5d593_session2_listb_speeded_trial145_choir.wav,2,b,peeded,145,choir,915,correct,NA,Apr  4 2023 10:16:20,Agnieszka,1
5d593,5d593_session2_listb_speeded_trial146_balloon.wav,2,b,peeded,146,balloon,700,correct,NA,Apr  4 2023 10:16:27,Agnieszka,1
5d593,5d593_session2_listb_speeded_trial147_needle.wav,2,b,peeded,147,needle,926,correct,NA,Apr  4 2023 10:16:33,Agnieszka,1
5d593,5d593_session2_listb_speeded_trial148_asparagus.wav,2,b,peeded,148,asparagus,741,correct,NA,Apr  4 2023 10:16:39,Agnieszka,1
5d593,5d593_session2_listb_speeded_trial149_coconut.wav,2,b,peeded,149,coconut,822,correct,NA,Apr  4 2023 10:16:44,Agnieszka,1
5d593,5d593_session2_listb_speeded_trial150_girl.wav,2,b,peeded,150,girl,716,correct,NA,Apr  4 2023 10:16:51,Agnieszka,1
