Participant_ID,File_Name,Session,List,Type_Trial,Trial_Nbr,Target,RT,Response_Trial,Comment,Date_Correction,Assessor_Name,Processed
6048d,6048d_session2_listb_speeded_trial001_finger.wav,2,b,peeded,1,finger,670,correct,NA,Mar 14 2023 14:32:03,Agnieszka,1
6048d,6048d_session2_listb_speeded_trial002_skateboard.wav,2,b,peeded,2,skateboard,577,correct,NA,Mar 14 2023 14:32:10,Agnieszka,1
6048d,6048d_session2_listb_speeded_trial003_car.wav,2,b,peeded,3,car,613,correct,NA,Mar 14 2023 14:32:22,Agnieszka,1
6048d,6048d_session2_listb_speeded_trial004_glasses.wav,2,b,peeded,4,glasses,663,correct,NA,Mar 14 2023 14:32:29,Agnieszka,1
6048d,6048d_session2_listb_speeded_trial005_balloon.wav,2,b,peeded,5,balloon,626,correct,NA,Mar 14 2023 14:32:34,Agnieszka,1
6048d,6048d_session2_listb_speeded_trial006_football.wav,2,b,peeded,6,football,643,correct,NA,Mar 14 2023 14:32:55,Agnieszka,1
6048d,6048d_session2_listb_speeded_trial007_butcher.wav,2,b,peeded,7,butcher,850,correct,NA,Mar 14 2023 14:33:06,Agnieszka,1
6048d,6048d_session2_listb_speeded_trial008_snail.wav,2,b,peeded,8,snail,724,correct,NA,Mar 14 2023 14:33:12,Agnieszka,1
6048d,6048d_session2_listb_speeded_trial009_pumpkin.wav,2,b,peeded,9,pumpkin,668,correct,NA,Mar 14 2023 14:33:25,Agnieszka,1
6048d,6048d_session2_listb_speeded_trial010_nun.wav,2,b,peeded,10,nun,709,correct,NA,Mar 14 2023 14:33:31,Agnieszka,1
6048d,6048d_session2_listb_speeded_trial011_television.wav,2,b,peeded,11,television,869,correct,NA,Mar 14 2023 14:33:37,Agnieszka,1
6048d,6048d_session2_listb_speeded_trial012_trumpet.wav,2,b,peeded,12,trumpet,793,correct,NA,Mar 14 2023 14:33:44,Agnieszka,1
6048d,6048d_session2_listb_speeded_trial013_lion.wav,2,b,peeded,13,lion,614,correct,NA,Mar 14 2023 14:33:52,Agnieszka,1
6048d,6048d_session2_listb_speeded_trial014_skull.wav,2,b,peeded,14,skull,-1,wrong_word,NA,Mar 14 2023 14:34:01,Agnieszka,1
6048d,6048d_session2_listb_speeded_trial015_camera.wav,2,b,peeded,15,camera,719,correct,NA,Mar 14 2023 14:34:09,Agnieszka,1
6048d,6048d_session2_listb_speeded_trial016_duck.wav,2,b,peeded,16,duck,625,correct,NA,Mar 14 2023 14:34:14,Agnieszka,1
6048d,6048d_session2_listb_speeded_trial017_caravan.wav,2,b,peeded,17,caravan,650,correct,NA,Mar 14 2023 14:34:21,Agnieszka,1
6048d,6048d_session2_listb_speeded_trial018_heart.wav,2,b,peeded,18,heart,576,correct,NA,Mar 14 2023 14:34:28,Agnieszka,1
6048d,6048d_session2_listb_speeded_trial019_keyboard.wav,2,b,peeded,19,keyboard,625,correct,NA,Mar 14 2023 14:34:35,Agnieszka,1
6048d,6048d_session2_listb_speeded_trial020_roof.wav,2,b,peeded,20,roof,903,correct,NA,Mar 14 2023 14:34:41,Agnieszka,1
6048d,6048d_session2_listb_speeded_trial021_ankle.wav,2,b,peeded,21,ankle,963,correct,NA,Mar 14 2023 14:34:50,Agnieszka,1
6048d,6048d_session2_listb_speeded_trial022_spider.wav,2,b,peeded,22,spider,739,correct,NA,Mar 14 2023 14:35:00,Agnieszka,1
6048d,6048d_session2_listb_speeded_trial023_hedgehog.wav,2,b,peeded,23,hedgehog,668,correct,NA,Mar 14 2023 14:35:10,Agnieszka,1
6048d,6048d_session2_listb_speeded_trial024_fruit.wav,2,b,peeded,24,fruit,704,correct,NA,Mar 14 2023 14:35:19,Agnieszka,1
6048d,6048d_session2_listb_speeded_trial025_thermometer.wav,2,b,peeded,25,thermometer,749,correct,NA,Mar 14 2023 14:35:30,Agnieszka,1
6048d,6048d_session2_listb_speeded_trial026_scarf.wav,2,b,peeded,26,scarf,694,correct,NA,Mar 14 2023 14:35:39,Agnieszka,1
6048d,6048d_session2_listb_speeded_trial027_calculator.wav,2,b,peeded,27,calculator,727,correct,NA,Mar 14 2023 14:35:45,Agnieszka,1
6048d,6048d_session2_listb_speeded_trial028_coffee.wav,2,b,peeded,28,coffee,743,correct,NA,Mar 14 2023 14:35:55,Agnieszka,1
6048d,6048d_session2_listb_speeded_trial029_shark.wav,2,b,peeded,29,shark,675,correct,NA,Mar 14 2023 14:36:01,Agnieszka,1
6048d,6048d_session2_listb_speeded_trial030_cone.wav,2,b,peeded,30,cone,-1,disfluency,NA,Mar 14 2023 14:36:14,Agnieszka,1
6048d,6048d_session2_listb_speeded_trial031_microphone.wav,2,b,peeded,31,microphone,743,correct,NA,Mar 14 2023 14:36:21,Agnieszka,1
6048d,6048d_session2_listb_speeded_trial032_apron.wav,2,b,peeded,32,apron,817,correct,NA,Mar 14 2023 14:36:28,Agnieszka,1
6048d,6048d_session2_listb_speeded_trial033_chair.wav,2,b,peeded,33,chair,592,correct,NA,Mar 14 2023 14:36:38,Agnieszka,1
6048d,6048d_session2_listb_speeded_trial034_cowboy.wav,2,b,peeded,34,cowboy,761,correct,NA,Mar 14 2023 14:36:46,Agnieszka,1
6048d,6048d_session2_listb_speeded_trial035_bra.wav,2,b,peeded,35,bra,668,correct,NA,Mar 14 2023 14:36:53,Agnieszka,1
6048d,6048d_session2_listb_speeded_trial036_torch.wav,2,b,peeded,36,torch,685,correct,NA,Mar 14 2023 14:37:09,Agnieszka,1
6048d,6048d_session2_listb_speeded_trial037_back.wav,2,b,peeded,37,back,709,correct,NA,Mar 14 2023 14:37:21,Agnieszka,1
6048d,6048d_session2_listb_speeded_trial038_stapler.wav,2,b,peeded,38,stapler,709,correct,NA,Mar 14 2023 14:37:30,Agnieszka,1
6048d,6048d_session2_listb_speeded_trial039_foot.wav,2,b,peeded,39,foot,773,correct,NA,Mar 14 2023 14:37:36,Agnieszka,1
6048d,6048d_session2_listb_speeded_trial040_jar.wav,2,b,peeded,40,jar,652,correct,NA,Mar 14 2023 14:37:46,Agnieszka,1
6048d,6048d_session2_listb_speeded_trial041_nurse.wav,2,b,peeded,41,nurse,724,correct,NA,Mar 14 2023 14:37:55,Agnieszka,1
6048d,6048d_session2_listb_speeded_trial042_elephant.wav,2,b,peeded,42,elephant,623,correct,NA,Mar 14 2023 14:38:03,Agnieszka,1
6048d,6048d_session2_listb_speeded_trial043_volcano.wav,2,b,peeded,43,volcano,800,correct,NA,Mar 14 2023 14:38:16,Agnieszka,1
6048d,6048d_session2_listb_speeded_trial044_witch.wav,2,b,peeded,44,witch,722,correct,NA,Mar 14 2023 14:38:22,Agnieszka,1
6048d,6048d_session2_listb_speeded_trial045_baby.wav,2,b,peeded,45,baby,689,correct,NA,Mar 14 2023 14:38:28,Agnieszka,1
6048d,6048d_session2_listb_speeded_trial046_asparagus.wav,2,b,peeded,46,asparagus,739,correct,NA,Mar 14 2023 14:38:34,Agnieszka,1
6048d,6048d_session2_listb_speeded_trial047_coffin.wav,2,b,peeded,47,coffin,722,correct,NA,Mar 14 2023 14:38:44,Agnieszka,1
6048d,6048d_session2_listb_speeded_trial048_broccoli.wav,2,b,peeded,48,broccoli,732,correct,NA,Mar 14 2023 14:38:51,Agnieszka,1
6048d,6048d_session2_listb_speeded_trial049_fire.wav,2,b,peeded,49,fire,667,correct,NA,Mar 14 2023 14:38:58,Agnieszka,1
6048d,6048d_session2_listb_speeded_trial050_bedroom.wav,2,b,peeded,50,bedroom,975,correct,NA,Mar 14 2023 14:39:04,Agnieszka,1
6048d,6048d_session2_listb_speeded_trial051_airport.wav,2,b,peeded,51,airport,877,correct,NA,Mar 14 2023 14:39:12,Agnieszka,1
6048d,6048d_session2_listb_speeded_trial052_moustache.wav,2,b,peeded,52,moustache,759,correct,NA,Mar 14 2023 14:39:18,Agnieszka,1
6048d,6048d_session2_listb_speeded_trial053_condom.wav,2,b,peeded,53,condom,849,correct,NA,Mar 14 2023 14:39:24,Agnieszka,1
6048d,6048d_session2_listb_speeded_trial054_chain.wav,2,b,peeded,54,chain,732,correct,NA,Mar 14 2023 14:39:30,Agnieszka,1
6048d,6048d_session2_listb_speeded_trial055_parachute.wav,2,b,peeded,55,parachute,1324,correct,NA,Mar 14 2023 14:39:37,Agnieszka,1
6048d,6048d_session2_listb_speeded_trial056_feather.wav,2,b,peeded,56,feather,913,correct,NA,Mar 14 2023 14:39:45,Agnieszka,1
6048d,6048d_session2_listb_speeded_trial057_parrot.wav,2,b,peeded,57,parrot,748,correct,NA,Mar 14 2023 14:39:50,Agnieszka,1
6048d,6048d_session2_listb_speeded_trial058_earring.wav,2,b,peeded,58,earring,957,correct,NA,Mar 14 2023 14:39:56,Agnieszka,1
6048d,6048d_session2_listb_speeded_trial059_cannon.wav,2,b,peeded,59,cannon,791,correct,NA,Mar 14 2023 14:40:06,Agnieszka,1
6048d,6048d_session2_listb_speeded_trial060_leaf.wav,2,b,peeded,60,leaf,702,correct,NA,Mar 14 2023 14:40:15,Agnieszka,1
6048d,6048d_session2_listb_speeded_trial061_handle.wav,2,b,peeded,61,handle,771,correct,NA,Mar 14 2023 14:40:21,Agnieszka,1
6048d,6048d_session2_listb_speeded_trial062_lizard.wav,2,b,peeded,62,lizard,901,correct,NA,Mar 14 2023 14:40:27,Agnieszka,1
6048d,6048d_session2_listb_speeded_trial063_beard.wav,2,b,peeded,63,beard,685,correct,NA,Mar 14 2023 14:40:35,Agnieszka,1
6048d,6048d_session2_listb_speeded_trial064_dolphin.wav,2,b,peeded,64,dolphin,678,correct,NA,Mar 14 2023 14:40:44,Agnieszka,1
6048d,6048d_session2_listb_speeded_trial065_brain.wav,2,b,peeded,65,brain,630,correct,NA,Mar 14 2023 14:40:50,Agnieszka,1
6048d,6048d_session2_listb_speeded_trial066_eye.wav,2,b,peeded,66,eye,582,correct,NA,Mar 14 2023 14:40:57,Agnieszka,1
6048d,6048d_session2_listb_speeded_trial067_lemon.wav,2,b,peeded,67,lemon,641,correct,NA,Mar 14 2023 14:41:05,Agnieszka,1
6048d,6048d_session2_listb_speeded_trial068_ring.wav,2,b,peeded,68,ring,704,correct,NA,Mar 14 2023 14:41:11,Agnieszka,1
6048d,6048d_session2_listb_speeded_trial069_greenhouse.wav,2,b,peeded,69,greenhouse,805,correct,NA,Mar 14 2023 14:41:21,Agnieszka,1
6048d,6048d_session2_listb_speeded_trial070_swimming.wav,2,b,peeded,70,swimming,847,correct,NA,Mar 14 2023 14:41:28,Agnieszka,1
6048d,6048d_session2_listb_speeded_trial071_dragon.wav,2,b,peeded,71,dragon,808,correct,NA,Mar 14 2023 14:41:40,Agnieszka,1
6048d,6048d_session2_listb_speeded_trial072_glass.wav,2,b,peeded,72,glass,719,correct,NA,Mar 14 2023 14:41:47,Agnieszka,1
6048d,6048d_session2_listb_speeded_trial073_shadow.wav,2,b,peeded,73,shadow,911,correct,NA,Mar 14 2023 14:41:54,Agnieszka,1
6048d,6048d_session2_listb_speeded_trial074_telephone.wav,2,b,peeded,74,telephone,727,correct,NA,Mar 14 2023 14:42:00,Agnieszka,1
6048d,6048d_session2_listb_speeded_trial075_devil.wav,2,b,peeded,75,devil,704,correct,NA,Mar 14 2023 14:42:08,Agnieszka,1
6048d,6048d_session2_listb_speeded_trial076_pilot.wav,2,b,peeded,76,pilot,-1,no_resp,NA,Mar 14 2023 14:42:15,Agnieszka,1
6048d,6048d_session2_listb_speeded_trial077_cigarette.wav,2,b,peeded,77,cigarette,749,correct,NA,Mar 14 2023 14:42:20,Agnieszka,1
6048d,6048d_session2_listb_speeded_trial078_house.wav,2,b,peeded,78,house,695,correct,NA,Mar 14 2023 14:42:27,Agnieszka,1
6048d,6048d_session2_listb_speeded_trial079_hair.wav,2,b,peeded,79,hair,741,correct,NA,Mar 14 2023 14:42:32,Agnieszka,1
6048d,6048d_session2_listb_speeded_trial080_umbrella.wav,2,b,peeded,80,umbrella,678,correct,NA,Mar 14 2023 14:42:39,Agnieszka,1
6048d,6048d_session2_listb_speeded_trial081_giraffe.wav,2,b,peeded,81,giraffe,668,correct,NA,Mar 14 2023 14:42:47,Agnieszka,1
6048d,6048d_session2_listb_speeded_trial082_farm.wav,2,b,peeded,82,farm,906,correct,NA,Mar 14 2023 14:42:54,Agnieszka,1
6048d,6048d_session2_listb_speeded_trial083_cage.wav,2,b,peeded,83,cage,1194,correct,NA,Mar 14 2023 14:42:59,Agnieszka,1
6048d,6048d_session2_listb_speeded_trial084_king.wav,2,b,peeded,84,king,1075,correct,NA,Mar 14 2023 14:43:05,Agnieszka,1
6048d,6048d_session2_listb_speeded_trial085_sink.wav,2,b,peeded,85,sink,768,correct,NA,Mar 14 2023 14:43:14,Agnieszka,1
6048d,6048d_session2_listb_speeded_trial086_cloud.wav,2,b,peeded,86,cloud,675,correct,NA,Mar 14 2023 14:43:34,Agnieszka,1
6048d,6048d_session2_listb_speeded_trial087_lab.wav,2,b,peeded,87,lab,847,correct,NA,Mar 14 2023 14:43:41,Agnieszka,1
6048d,6048d_session2_listb_speeded_trial088_road.wav,2,b,peeded,88,road,1397,correct,NA,Mar 14 2023 14:43:50,Agnieszka,1
6048d,6048d_session2_listb_speeded_trial089_pizza.wav,2,b,peeded,89,pizza,704,correct,NA,Mar 14 2023 14:43:55,Agnieszka,1
6048d,6048d_session2_listb_speeded_trial090_pirate.wav,2,b,peeded,90,pirate,808,correct,NA,Mar 14 2023 14:44:02,Agnieszka,1
6048d,6048d_session2_listb_speeded_trial091_penguin.wav,2,b,peeded,91,penguin,739,correct,NA,Mar 14 2023 14:44:07,Agnieszka,1
6048d,6048d_session2_listb_speeded_trial092_crown.wav,2,b,peeded,92,crown,702,correct,NA,Mar 14 2023 14:44:20,Agnieszka,1
6048d,6048d_session2_listb_speeded_trial093_guitar.wav,2,b,peeded,93,guitar,694,correct,NA,Mar 14 2023 14:44:29,Agnieszka,1
6048d,6048d_session2_listb_speeded_trial094_button.wav,2,b,peeded,94,button,697,correct,NA,Mar 14 2023 14:44:35,Agnieszka,1
6048d,6048d_session2_listb_speeded_trial095_bin.wav,2,b,peeded,95,bin,685,correct,NA,Mar 14 2023 14:44:41,Agnieszka,1
6048d,6048d_session2_listb_speeded_trial096_dentist.wav,2,b,peeded,96,dentist,965,correct,NA,Mar 14 2023 14:44:49,Agnieszka,1
6048d,6048d_session2_listb_speeded_trial097_well.wav,2,b,peeded,97,well,690,correct,NA,Mar 14 2023 14:44:55,Agnieszka,1
6048d,6048d_session2_listb_speeded_trial098_vein.wav,2,b,peeded,98,vein,813,correct,NA,Mar 14 2023 14:45:02,Agnieszka,1
6048d,6048d_session2_listb_speeded_trial099_spoon.wav,2,b,peeded,99,spoon,810,correct,NA,Mar 14 2023 14:45:09,Agnieszka,1
6048d,6048d_session2_listb_speeded_trial100_dog.wav,2,b,peeded,100,dog,702,correct,NA,Mar 14 2023 14:45:15,Agnieszka,1
6048d,6048d_session2_listb_speeded_trial101_mask.wav,2,b,peeded,101,mask,797,correct,NA,Mar 14 2023 14:45:21,Agnieszka,1
6048d,6048d_session2_listb_speeded_trial102_dinosaur.wav,2,b,peeded,102,dinosaur,972,correct,NA,Mar 14 2023 14:45:27,Agnieszka,1
6048d,6048d_session2_listb_speeded_trial103_sheep.wav,2,b,peeded,103,sheep,823,correct,NA,Mar 14 2023 14:45:33,Agnieszka,1
6048d,6048d_session2_listb_speeded_trial104_fan.wav,2,b,peeded,104,fan,699,correct,NA,Mar 14 2023 14:45:42,Agnieszka,1
6048d,6048d_session2_listb_speeded_trial105_pool.wav,2,b,peeded,105,pool,711,correct,NA,Mar 14 2023 14:45:51,Agnieszka,1
6048d,6048d_session2_listb_speeded_trial106_coconut.wav,2,b,peeded,106,coconut,724,correct,NA,Mar 14 2023 14:46:01,Agnieszka,1
6048d,6048d_session2_listb_speeded_trial107_fist.wav,2,b,peeded,107,fist,653,correct,NA,Mar 14 2023 14:46:07,Agnieszka,1
6048d,6048d_session2_listb_speeded_trial108_frog.wav,2,b,peeded,108,frog,795,correct,NA,Mar 14 2023 14:46:18,Agnieszka,1
6048d,6048d_session2_listb_speeded_trial109_maze.wav,2,b,peeded,109,maze,751,correct,NA,Mar 14 2023 14:46:26,Agnieszka,1
6048d,6048d_session2_listb_speeded_trial110_iron.wav,2,b,peeded,110,iron,743,correct,NA,Mar 14 2023 14:46:32,Agnieszka,1
6048d,6048d_session2_listb_speeded_trial111_screwdriver.wav,2,b,peeded,111,screwdriver,813,correct,NA,Mar 14 2023 14:48:00,Agnieszka,1
6048d,6048d_session2_listb_speeded_trial112_harp.wav,2,b,peeded,112,harp,872,correct,NA,Mar 14 2023 14:48:35,Agnieszka,1
6048d,6048d_session2_listb_speeded_trial113_man.wav,2,b,peeded,113,man,980,correct,NA,Mar 14 2023 14:48:43,Agnieszka,1
6048d,6048d_session2_listb_speeded_trial114_girl.wav,2,b,peeded,114,girl,823,correct,NA,Mar 14 2023 14:48:52,Agnieszka,1
6048d,6048d_session2_listb_speeded_trial115_waiter.wav,2,b,peeded,115,waiter,830,correct,NA,Mar 14 2023 14:48:59,Agnieszka,1
6048d,6048d_session2_listb_speeded_trial116_banana.wav,2,b,peeded,116,banana,650,correct,NA,Mar 14 2023 14:49:09,Agnieszka,1
6048d,6048d_session2_listb_speeded_trial117_choir.wav,2,b,peeded,117,choir,726,correct,NA,Mar 14 2023 14:49:27,Agnieszka,1
6048d,6048d_session2_listb_speeded_trial118_scarecrow.wav,2,b,peeded,118,scarecrow,793,correct,NA,Mar 14 2023 14:49:36,Agnieszka,1
6048d,6048d_session2_listb_speeded_trial119_broom.wav,2,b,peeded,119,broom,702,correct,NA,Mar 14 2023 14:49:46,Agnieszka,1
6048d,6048d_session2_listb_speeded_trial120_wallet.wav,2,b,peeded,120,wallet,673,correct,NA,Mar 14 2023 14:49:54,Agnieszka,1
6048d,6048d_session2_listb_speeded_trial121_honey.wav,2,b,peeded,121,honey,711,correct,NA,Mar 14 2023 14:50:05,Agnieszka,1
6048d,6048d_session2_listb_speeded_trial122_nose.wav,2,b,peeded,122,nose,677,correct,NA,Mar 14 2023 14:50:15,Agnieszka,1
6048d,6048d_session2_listb_speeded_trial123_scorpion.wav,2,b,peeded,123,scorpion,582,correct,NA,Mar 14 2023 14:50:33,Agnieszka,1
6048d,6048d_session2_listb_speeded_trial124_watch.wav,2,b,peeded,124,watch,820,correct,NA,Mar 14 2023 14:50:42,Agnieszka,1
6048d,6048d_session2_listb_speeded_trial125_door.wav,2,b,peeded,125,door,761,correct,NA,Mar 14 2023 14:50:49,Agnieszka,1
6048d,6048d_session2_listb_speeded_trial126_ambulance.wav,2,b,peeded,126,ambulance,678,correct,NA,Mar 14 2023 14:50:57,Agnieszka,1
6048d,6048d_session2_listb_speeded_trial127_sock.wav,2,b,peeded,127,sock,791,correct,NA,Mar 14 2023 14:51:05,Agnieszka,1
6048d,6048d_session2_listb_speeded_trial128_skeleton.wav,2,b,peeded,128,skeleton,732,correct,NA,Mar 14 2023 14:51:14,Agnieszka,1
6048d,6048d_session2_listb_speeded_trial129_knee.wav,2,b,peeded,129,knee,709,correct,NA,Mar 14 2023 14:51:26,Agnieszka,1
6048d,6048d_session2_listb_speeded_trial130_burger.wav,2,b,peeded,130,burger,690,correct,NA,Mar 14 2023 14:51:37,Agnieszka,1
6048d,6048d_session2_listb_speeded_trial131_printer.wav,2,b,peeded,131,printer,842,correct,NA,Mar 14 2023 14:51:45,Agnieszka,1
6048d,6048d_session2_listb_speeded_trial132_belt.wav,2,b,peeded,132,belt,741,correct,NA,Mar 14 2023 14:51:52,Agnieszka,1
6048d,6048d_session2_listb_speeded_trial133_desert.wav,2,b,peeded,133,desert,825,correct,NA,Mar 14 2023 14:51:59,Agnieszka,1
6048d,6048d_session2_listb_speeded_trial134_bible.wav,2,b,peeded,134,bible,734,correct,NA,Mar 14 2023 14:52:08,Agnieszka,1
6048d,6048d_session2_listb_speeded_trial135_strawberry.wav,2,b,peeded,135,strawberry,778,correct,NA,Mar 14 2023 14:52:22,Agnieszka,1
6048d,6048d_session2_listb_speeded_trial136_mirror.wav,2,b,peeded,136,mirror,719,correct,NA,Mar 14 2023 14:52:30,Agnieszka,1
6048d,6048d_session2_listb_speeded_trial137_shirt.wav,2,b,peeded,137,shirt,-1,no_resp,NA,Mar 14 2023 14:52:42,Agnieszka,1
6048d,6048d_session2_listb_speeded_trial138_calendar.wav,2,b,peeded,138,calendar,850,correct,NA,Mar 14 2023 14:52:49,Agnieszka,1
6048d,6048d_session2_listb_speeded_trial139_needle.wav,2,b,peeded,139,needle,1051,correct,NA,Mar 14 2023 14:52:58,Agnieszka,1
6048d,6048d_session2_listb_speeded_trial140_diamond.wav,2,b,peeded,140,diamond,778,correct,NA,Mar 14 2023 14:53:05,Agnieszka,1
6048d,6048d_session2_listb_speeded_trial141_boomerang.wav,2,b,peeded,141,boomerang,749,correct,NA,Mar 14 2023 14:53:12,Agnieszka,1
6048d,6048d_session2_listb_speeded_trial142_tank.wav,2,b,peeded,142,tank,770,correct,NA,Mar 14 2023 14:53:20,Agnieszka,1
6048d,6048d_session2_listb_speeded_trial143_face.wav,2,b,peeded,143,face,764,correct,NA,Mar 14 2023 14:53:28,Agnieszka,1
6048d,6048d_session2_listb_speeded_trial144_bed.wav,2,b,peeded,144,bed,829,correct,NA,Mar 14 2023 14:53:37,Agnieszka,1
6048d,6048d_session2_listb_speeded_trial145_hand.wav,2,b,peeded,145,hand,719,correct,NA,Mar 14 2023 14:53:46,Agnieszka,1
6048d,6048d_session2_listb_speeded_trial146_egg.wav,2,b,peeded,146,egg,712,correct,NA,Mar 14 2023 14:53:55,Agnieszka,1
6048d,6048d_session2_listb_speeded_trial147_gun.wav,2,b,peeded,147,gun,785,correct,NA,Mar 14 2023 14:54:03,Agnieszka,1
6048d,6048d_session2_listb_speeded_trial148_bat.wav,2,b,peeded,148,bat,623,correct,NA,Mar 14 2023 14:54:18,Agnieszka,1
6048d,6048d_session2_listb_speeded_trial149_cactus.wav,2,b,peeded,149,cactus,682,correct,NA,Mar 14 2023 14:54:33,Agnieszka,1
6048d,6048d_session2_listb_speeded_trial150_tooth.wav,2,b,peeded,150,tooth,-1,wrong_word,NA,Mar 14 2023 14:54:41,Agnieszka,1
