Participant_ID,File_Name,Session,List,Type_Trial,Trial_Nbr,Target,RT,Response_Trial,Comment,Date_Correction,Assessor_Name,Processed
5e779,5e779_session2_listb_speeded_trial001_calculator.wav,2,b,peeded,1,calculator,921,correct,NA,Mar 14 2023 09:07:37,Agnieszka,1
5e779,5e779_session2_listb_speeded_trial002_ring.wav,2,b,peeded,2,ring,1119,correct,NA,Mar 14 2023 09:07:44,Agnieszka,1
5e779,5e779_session2_listb_speeded_trial003_mask.wav,2,b,peeded,3,mask,834,correct,NA,Mar 14 2023 09:07:50,Agnieszka,1
5e779,5e779_session2_listb_speeded_trial004_gun.wav,2,b,peeded,4,gun,653,correct,NA,Mar 14 2023 09:07:59,Agnieszka,1
5e779,5e779_session2_listb_speeded_trial005_lion.wav,2,b,peeded,5,lion,692,correct,NA,Mar 14 2023 09:08:08,Agnieszka,1
5e779,5e779_session2_listb_speeded_trial006_knee.wav,2,b,peeded,6,knee,-1,disfluency,NA,Mar 14 2023 09:08:15,Agnieszka,1
5e779,5e779_session2_listb_speeded_trial007_parrot.wav,2,b,peeded,7,parrot,657,correct,NA,Mar 14 2023 09:08:27,Agnieszka,1
5e779,5e779_session2_listb_speeded_trial008_duck.wav,2,b,peeded,8,duck,697,correct,NA,Mar 14 2023 09:08:35,Agnieszka,1
5e779,5e779_session2_listb_speeded_trial009_airport.wav,2,b,peeded,9,airport,1171,uncertain,cut off in the end,Mar 14 2023 09:08:50,Agnieszka,1
5e779,5e779_session2_listb_speeded_trial010_waiter.wav,2,b,peeded,10,waiter,877,correct,NA,Mar 14 2023 09:08:56,Agnieszka,1
5e779,5e779_session2_listb_speeded_trial011_dolphin.wav,2,b,peeded,11,dolphin,655,correct,NA,Mar 14 2023 09:09:03,Agnieszka,1
5e779,5e779_session2_listb_speeded_trial012_torch.wav,2,b,peeded,12,torch,650,correct,NA,Mar 14 2023 09:09:10,Agnieszka,1
5e779,5e779_session2_listb_speeded_trial013_coffin.wav,2,b,peeded,13,coffin,668,correct,NA,Mar 14 2023 09:09:20,Agnieszka,1
5e779,5e779_session2_listb_speeded_trial014_coffee.wav,2,b,peeded,14,coffee,849,correct,NA,Mar 14 2023 09:09:29,Agnieszka,1
5e779,5e779_session2_listb_speeded_trial015_feather.wav,2,b,peeded,15,feather,702,correct,NA,Mar 14 2023 09:09:47,Agnieszka,1
5e779,5e779_session2_listb_speeded_trial016_hand.wav,2,b,peeded,16,hand,660,correct,NA,Mar 14 2023 09:09:53,Agnieszka,1
5e779,5e779_session2_listb_speeded_trial017_maze.wav,2,b,peeded,17,maze,1048,correct,NA,Mar 14 2023 09:10:00,Agnieszka,1
5e779,5e779_session2_listb_speeded_trial018_moustache.wav,2,b,peeded,18,moustache,652,correct,sounds like "moushtache",Mar 14 2023 09:10:21,Agnieszka,1
5e779,5e779_session2_listb_speeded_trial019_butcher.wav,2,b,peeded,19,butcher,822,correct,NA,Mar 14 2023 09:10:31,Agnieszka,1
5e779,5e779_session2_listb_speeded_trial020_calendar.wav,2,b,peeded,20,calendar,689,correct,NA,Mar 14 2023 09:10:42,Agnieszka,1
5e779,5e779_session2_listb_speeded_trial021_pirate.wav,2,b,peeded,21,pirate,668,correct,NA,Mar 14 2023 09:10:51,Agnieszka,1
5e779,5e779_session2_listb_speeded_trial022_back.wav,2,b,peeded,22,back,751,correct,NA,Mar 14 2023 09:10:58,Agnieszka,1
5e779,5e779_session2_listb_speeded_trial023_snail.wav,2,b,peeded,23,snail,667,correct,NA,Mar 14 2023 09:11:07,Agnieszka,1
5e779,5e779_session2_listb_speeded_trial024_fire.wav,2,b,peeded,24,fire,625,correct,NA,Mar 14 2023 09:11:15,Agnieszka,1
5e779,5e779_session2_listb_speeded_trial025_cage.wav,2,b,peeded,25,cage,793,correct,NA,Mar 14 2023 09:11:24,Agnieszka,1
5e779,5e779_session2_listb_speeded_trial026_hair.wav,2,b,peeded,26,hair,655,correct,NA,Mar 14 2023 09:11:39,Agnieszka,1
5e779,5e779_session2_listb_speeded_trial027_guitar.wav,2,b,peeded,27,guitar,756,correct,NA,Mar 14 2023 09:11:45,Agnieszka,1
5e779,5e779_session2_listb_speeded_trial028_spoon.wav,2,b,peeded,28,spoon,621,correct,NA,Mar 14 2023 09:11:52,Agnieszka,1
5e779,5e779_session2_listb_speeded_trial029_banana.wav,2,b,peeded,29,banana,653,correct,NA,Mar 14 2023 09:11:59,Agnieszka,1
5e779,5e779_session2_listb_speeded_trial030_football.wav,2,b,peeded,30,football,-1,wrong_word,NA,Mar 14 2023 09:12:08,Agnieszka,1
5e779,5e779_session2_listb_speeded_trial031_skateboard.wav,2,b,peeded,31,skateboard,802,correct,NA,Mar 14 2023 09:12:19,Agnieszka,1
5e779,5e779_session2_listb_speeded_trial032_camera.wav,2,b,peeded,32,camera,704,correct,NA,Mar 14 2023 09:12:28,Agnieszka,1
5e779,5e779_session2_listb_speeded_trial033_needle.wav,2,b,peeded,33,needle,729,correct,NA,Mar 14 2023 09:12:35,Agnieszka,1
5e779,5e779_session2_listb_speeded_trial034_pool.wav,2,b,peeded,34,pool,695,correct,NA,Mar 14 2023 09:12:42,Agnieszka,1
5e779,5e779_session2_listb_speeded_trial035_skeleton.wav,2,b,peeded,35,skeleton,667,correct,NA,Mar 14 2023 09:12:49,Agnieszka,1
5e779,5e779_session2_listb_speeded_trial036_cactus.wav,2,b,peeded,36,cactus,756,correct,NA,Mar 14 2023 09:12:57,Agnieszka,1
5e779,5e779_session2_listb_speeded_trial037_belt.wav,2,b,peeded,37,belt,783,correct,NA,Mar 14 2023 09:13:08,Agnieszka,1
5e779,5e779_session2_listb_speeded_trial038_shark.wav,2,b,peeded,38,shark,945,correct,NA,Mar 14 2023 09:13:15,Agnieszka,1
5e779,5e779_session2_listb_speeded_trial039_wallet.wav,2,b,peeded,39,wallet,859,correct,NA,Mar 14 2023 09:13:23,Agnieszka,1
5e779,5e779_session2_listb_speeded_trial040_watch.wav,2,b,peeded,40,watch,802,correct,NA,Mar 14 2023 09:13:29,Agnieszka,1
5e779,5e779_session2_listb_speeded_trial041_road.wav,2,b,peeded,41,road,758,correct,NA,Mar 14 2023 09:13:41,Agnieszka,1
5e779,5e779_session2_listb_speeded_trial042_cloud.wav,2,b,peeded,42,cloud,737,correct,NA,Mar 14 2023 09:13:48,Agnieszka,1
5e779,5e779_session2_listb_speeded_trial043_pizza.wav,2,b,peeded,43,pizza,665,correct,NA,Mar 14 2023 09:13:54,Agnieszka,1
5e779,5e779_session2_listb_speeded_trial044_printer.wav,2,b,peeded,44,printer,-1,uncertain,cut off early on,Mar 14 2023 09:14:13,Agnieszka,1
5e779,5e779_session2_listb_speeded_trial045_giraffe.wav,2,b,peeded,45,giraffe,778,correct,NA,Mar 14 2023 09:14:23,Agnieszka,1
5e779,5e779_session2_listb_speeded_trial046_jar.wav,2,b,peeded,46,jar,759,correct,NA,Mar 14 2023 09:14:28,Agnieszka,1
5e779,5e779_session2_listb_speeded_trial047_fist.wav,2,b,peeded,47,fist,871,correct,NA,Mar 14 2023 09:14:34,Agnieszka,1
5e779,5e779_session2_listb_speeded_trial048_hedgehog.wav,2,b,peeded,48,hedgehog,871,correct,NA,Mar 14 2023 09:14:39,Agnieszka,1
5e779,5e779_session2_listb_speeded_trial049_glass.wav,2,b,peeded,49,glass,1124,correct,NA,Mar 14 2023 09:14:48,Agnieszka,1
5e779,5e779_session2_listb_speeded_trial050_leaf.wav,2,b,peeded,50,leaf,749,correct,NA,Mar 14 2023 09:15:10,Agnieszka,1
5e779,5e779_session2_listb_speeded_trial051_bin.wav,2,b,peeded,51,bin,879,correct,NA,Mar 14 2023 09:15:21,Agnieszka,1
5e779,5e779_session2_listb_speeded_trial052_mirror.wav,2,b,peeded,52,mirror,759,correct,NA,Mar 14 2023 09:15:27,Agnieszka,1
5e779,5e779_session2_listb_speeded_trial053_chain.wav,2,b,peeded,53,chain,770,correct,NA,Mar 14 2023 09:15:34,Agnieszka,1
5e779,5e779_session2_listb_speeded_trial054_nurse.wav,2,b,peeded,54,nurse,788,correct,NA,Mar 14 2023 09:15:41,Agnieszka,1
5e779,5e779_session2_listb_speeded_trial055_button.wav,2,b,peeded,55,button,687,correct,NA,Mar 14 2023 09:15:48,Agnieszka,1
5e779,5e779_session2_listb_speeded_trial056_eye.wav,2,b,peeded,56,eye,810,correct,NA,Mar 14 2023 09:15:54,Agnieszka,1
5e779,5e779_session2_listb_speeded_trial057_door.wav,2,b,peeded,57,door,724,correct,NA,Mar 14 2023 09:16:02,Agnieszka,1
5e779,5e779_session2_listb_speeded_trial058_dinosaur.wav,2,b,peeded,58,dinosaur,807,correct,NA,Mar 14 2023 09:16:09,Agnieszka,1
5e779,5e779_session2_listb_speeded_trial059_lab.wav,2,b,peeded,59,lab,847,correct,NA,Mar 14 2023 09:16:20,Agnieszka,1
5e779,5e779_session2_listb_speeded_trial060_glasses.wav,2,b,peeded,60,glasses,835,correct,NA,Mar 14 2023 09:16:26,Agnieszka,1
5e779,5e779_session2_listb_speeded_trial061_chair.wav,2,b,peeded,61,chair,739,correct,NA,Mar 14 2023 09:16:32,Agnieszka,1
5e779,5e779_session2_listb_speeded_trial062_broccoli.wav,2,b,peeded,62,broccoli,746,correct,NA,Mar 14 2023 09:16:42,Agnieszka,1
5e779,5e779_session2_listb_speeded_trial063_earring.wav,2,b,peeded,63,earring,817,correct,NA,Mar 14 2023 09:16:48,Agnieszka,1
5e779,5e779_session2_listb_speeded_trial064_broom.wav,2,b,peeded,64,broom,673,correct,NA,Mar 14 2023 09:16:54,Agnieszka,1
5e779,5e779_session2_listb_speeded_trial065_sink.wav,2,b,peeded,65,sink,749,correct,NA,Mar 14 2023 09:17:03,Agnieszka,1
5e779,5e779_session2_listb_speeded_trial066_shirt.wav,2,b,peeded,66,shirt,736,correct,NA,Mar 14 2023 09:17:10,Agnieszka,1
5e779,5e779_session2_listb_speeded_trial067_cowboy.wav,2,b,peeded,67,cowboy,773,correct,NA,Mar 14 2023 09:17:19,Agnieszka,1
5e779,5e779_session2_listb_speeded_trial068_sock.wav,2,b,peeded,68,sock,781,correct,NA,Mar 14 2023 09:17:24,Agnieszka,1
5e779,5e779_session2_listb_speeded_trial069_elephant.wav,2,b,peeded,69,elephant,888,correct,NA,Mar 14 2023 09:17:31,Agnieszka,1
5e779,5e779_session2_listb_speeded_trial070_frog.wav,2,b,peeded,70,frog,810,correct,NA,Mar 14 2023 09:17:36,Agnieszka,1
5e779,5e779_session2_listb_speeded_trial071_heart.wav,2,b,peeded,71,heart,705,correct,NA,Mar 14 2023 09:17:43,Agnieszka,1
5e779,5e779_session2_listb_speeded_trial072_baby.wav,2,b,peeded,72,baby,749,correct,NA,Mar 14 2023 09:17:53,Agnieszka,1
5e779,5e779_session2_listb_speeded_trial073_iron.wav,2,b,peeded,73,iron,915,correct,NA,Mar 14 2023 09:18:00,Agnieszka,1
5e779,5e779_session2_listb_speeded_trial074_swimming.wav,2,b,peeded,74,swimming,903,correct,NA,Mar 14 2023 09:18:07,Agnieszka,1
5e779,5e779_session2_listb_speeded_trial075_caravan.wav,2,b,peeded,75,caravan,942,correct,NA,Mar 14 2023 09:18:14,Agnieszka,1
5e779,5e779_session2_listb_speeded_trial076_beard.wav,2,b,peeded,76,beard,1058,correct,NA,Mar 14 2023 10:06:49,Agnieszka,1
5e779,5e779_session2_listb_speeded_trial077_scorpion.wav,2,b,peeded,77,scorpion,936,correct,cut off,Mar 14 2023 10:07:04,Agnieszka,1
5e779,5e779_session2_listb_speeded_trial078_lizard.wav,2,b,peeded,78,lizard,923,correct,NA,Mar 14 2023 10:07:19,Agnieszka,1
5e779,5e779_session2_listb_speeded_trial079_vein.wav,2,b,peeded,79,vein,999,correct,NA,Mar 14 2023 10:07:39,Agnieszka,1
5e779,5e779_session2_listb_speeded_trial080_king.wav,2,b,peeded,80,king,842,correct,NA,Mar 14 2023 10:08:32,Agnieszka,1
5e779,5e779_session2_listb_speeded_trial081_ankle.wav,2,b,peeded,81,ankle,943,correct,NA,Mar 14 2023 10:08:38,Agnieszka,1
5e779,5e779_session2_listb_speeded_trial082_ambulance.wav,2,b,peeded,82,ambulance,979,correct,cut off,Mar 14 2023 10:08:50,Agnieszka,1
5e779,5e779_session2_listb_speeded_trial083_balloon.wav,2,b,peeded,83,balloon,800,correct,NA,Mar 14 2023 10:08:56,Agnieszka,1
5e779,5e779_session2_listb_speeded_trial084_pilot.wav,2,b,peeded,84,pilot,854,correct,NA,Mar 14 2023 10:09:08,Agnieszka,1
5e779,5e779_session2_listb_speeded_trial085_bedroom.wav,2,b,peeded,85,bedroom,977,correct,NA,Mar 14 2023 10:09:16,Agnieszka,1
5e779,5e779_session2_listb_speeded_trial086_sheep.wav,2,b,peeded,86,sheep,798,correct,NA,Mar 14 2023 10:09:22,Agnieszka,1
5e779,5e779_session2_listb_speeded_trial087_well.wav,2,b,peeded,87,well,810,correct,NA,Mar 14 2023 10:09:29,Agnieszka,1
5e779,5e779_session2_listb_speeded_trial088_condom.wav,2,b,peeded,88,condom,830,correct,NA,Mar 14 2023 10:09:36,Agnieszka,1
5e779,5e779_session2_listb_speeded_trial089_fan.wav,2,b,peeded,89,fan,1085,correct,NA,Mar 14 2023 10:09:46,Agnieszka,1
5e779,5e779_session2_listb_speeded_trial090_dog.wav,2,b,peeded,90,dog,-1,wrong_word,NA,Mar 14 2023 10:09:54,Agnieszka,1
5e779,5e779_session2_listb_speeded_trial091_tooth.wav,2,b,peeded,91,tooth,1115,correct,NA,Mar 14 2023 10:10:02,Agnieszka,1
5e779,5e779_session2_listb_speeded_trial092_asparagus.wav,2,b,peeded,92,asparagus,-1,uncertain,cut off,Mar 14 2023 10:10:19,Agnieszka,1
5e779,5e779_session2_listb_speeded_trial093_boomerang.wav,2,b,peeded,93,boomerang,-1,no_resp,NA,Mar 14 2023 10:10:25,Agnieszka,1
5e779,5e779_session2_listb_speeded_trial094_stapler.wav,2,b,peeded,94,stapler,1007,correct,NA,Mar 14 2023 10:10:34,Agnieszka,1
5e779,5e779_session2_listb_speeded_trial095_strawberry.wav,2,b,peeded,95,strawberry,807,correct,NA,Mar 14 2023 10:10:41,Agnieszka,1
5e779,5e779_session2_listb_speeded_trial096_spider.wav,2,b,peeded,96,spider,754,correct,NA,Mar 14 2023 10:10:47,Agnieszka,1
5e779,5e779_session2_listb_speeded_trial097_house.wav,2,b,peeded,97,house,810,correct,NA,Mar 14 2023 10:10:52,Agnieszka,1
5e779,5e779_session2_listb_speeded_trial098_apron.wav,2,b,peeded,98,apron,852,correct,NA,Mar 14 2023 10:11:00,Agnieszka,1
5e779,5e779_session2_listb_speeded_trial099_face.wav,2,b,peeded,99,face,807,correct,NA,Mar 14 2023 10:11:13,Agnieszka,1
5e779,5e779_session2_listb_speeded_trial100_television.wav,2,b,peeded,100,television,721,correct,NA,Mar 14 2023 10:11:21,Agnieszka,1
5e779,5e779_session2_listb_speeded_trial101_skull.wav,2,b,peeded,101,skull,754,correct,NA,Mar 14 2023 10:11:27,Agnieszka,1
5e779,5e779_session2_listb_speeded_trial102_foot.wav,2,b,peeded,102,foot,1078,correct,NA,Mar 14 2023 10:11:33,Agnieszka,1
5e779,5e779_session2_listb_speeded_trial103_bible.wav,2,b,peeded,103,bible,1043,correct,NA,Mar 14 2023 10:11:38,Agnieszka,1
5e779,5e779_session2_listb_speeded_trial104_umbrella.wav,2,b,peeded,104,umbrella,825,correct,NA,Mar 14 2023 10:11:50,Agnieszka,1
5e779,5e779_session2_listb_speeded_trial105_witch.wav,2,b,peeded,105,witch,849,correct,NA,Mar 14 2023 10:11:56,Agnieszka,1
5e779,5e779_session2_listb_speeded_trial106_coconut.wav,2,b,peeded,106,coconut,748,correct,NA,Mar 14 2023 10:12:03,Agnieszka,1
5e779,5e779_session2_listb_speeded_trial107_car.wav,2,b,peeded,107,car,731,correct,NA,Mar 14 2023 10:12:11,Agnieszka,1
5e779,5e779_session2_listb_speeded_trial108_diamond.wav,2,b,peeded,108,diamond,705,correct,NA,Mar 14 2023 10:12:18,Agnieszka,1
5e779,5e779_session2_listb_speeded_trial109_brain.wav,2,b,peeded,109,brain,685,correct,NA,Mar 14 2023 10:12:27,Agnieszka,1
5e779,5e779_session2_listb_speeded_trial110_egg.wav,2,b,peeded,110,egg,721,correct,NA,Mar 14 2023 10:12:38,Agnieszka,1
5e779,5e779_session2_listb_speeded_trial111_nun.wav,2,b,peeded,111,nun,741,correct,NA,Mar 14 2023 10:12:46,Agnieszka,1
5e779,5e779_session2_listb_speeded_trial112_fruit.wav,2,b,peeded,112,fruit,827,correct,NA,Mar 14 2023 10:12:53,Agnieszka,1
5e779,5e779_session2_listb_speeded_trial113_screwdriver.wav,2,b,peeded,113,screwdriver,-1,uncertain,cut off,Mar 14 2023 10:13:05,Agnieszka,1
5e779,5e779_session2_listb_speeded_trial114_nose.wav,2,b,peeded,114,nose,972,correct,NA,Mar 14 2023 10:13:12,Agnieszka,1
5e779,5e779_session2_listb_speeded_trial115_roof.wav,2,b,peeded,115,roof,1078,correct,NA,Mar 14 2023 10:13:21,Agnieszka,1
5e779,5e779_session2_listb_speeded_trial116_dragon.wav,2,b,peeded,116,dragon,857,correct,NA,Mar 14 2023 10:13:32,Agnieszka,1
5e779,5e779_session2_listb_speeded_trial117_penguin.wav,2,b,peeded,117,penguin,682,correct,NA,Mar 14 2023 10:13:42,Agnieszka,1
5e779,5e779_session2_listb_speeded_trial118_dentist.wav,2,b,peeded,118,dentist,820,correct,NA,Mar 14 2023 10:13:48,Agnieszka,1
5e779,5e779_session2_listb_speeded_trial119_burger.wav,2,b,peeded,119,burger,697,correct,NA,Mar 14 2023 10:13:55,Agnieszka,1
5e779,5e779_session2_listb_speeded_trial120_keyboard.wav,2,b,peeded,120,keyboard,722,correct,NA,Mar 14 2023 10:14:02,Agnieszka,1
5e779,5e779_session2_listb_speeded_trial121_cone.wav,2,b,peeded,121,cone,-1,no_resp,NA,Mar 14 2023 10:14:09,Agnieszka,1
5e779,5e779_session2_listb_speeded_trial122_devil.wav,2,b,peeded,122,devil,-1,uncertain,starts with the previous word,Mar 14 2023 10:14:28,Agnieszka,1
5e779,5e779_session2_listb_speeded_trial123_cannon.wav,2,b,peeded,123,cannon,739,correct,NA,Mar 14 2023 10:14:35,Agnieszka,1
5e779,5e779_session2_listb_speeded_trial124_bed.wav,2,b,peeded,124,bed,721,correct,NA,Mar 14 2023 10:14:43,Agnieszka,1
5e779,5e779_session2_listb_speeded_trial125_choir.wav,2,b,peeded,125,choir,780,correct,NA,Mar 14 2023 10:14:50,Agnieszka,1
5e779,5e779_session2_listb_speeded_trial126_bat.wav,2,b,peeded,126,bat,700,correct,NA,Mar 14 2023 10:15:01,Agnieszka,1
5e779,5e779_session2_listb_speeded_trial127_bra.wav,2,b,peeded,127,bra,702,correct,NA,Mar 14 2023 10:15:08,Agnieszka,1
5e779,5e779_session2_listb_speeded_trial128_cigarette.wav,2,b,peeded,128,cigarette,707,correct,NA,Mar 14 2023 10:15:21,Agnieszka,1
5e779,5e779_session2_listb_speeded_trial129_harp.wav,2,b,peeded,129,harp,677,correct,NA,Mar 14 2023 10:15:29,Agnieszka,1
5e779,5e779_session2_listb_speeded_trial130_crown.wav,2,b,peeded,130,crown,692,correct,NA,Mar 14 2023 10:15:37,Agnieszka,1
5e779,5e779_session2_listb_speeded_trial131_scarf.wav,2,b,peeded,131,scarf,682,correct,NA,Mar 14 2023 10:15:44,Agnieszka,1
5e779,5e779_session2_listb_speeded_trial132_desert.wav,2,b,peeded,132,desert,775,correct,NA,Mar 14 2023 10:15:51,Agnieszka,1
5e779,5e779_session2_listb_speeded_trial133_scarecrow.wav,2,b,peeded,133,scarecrow,623,correct,NA,Mar 14 2023 10:15:57,Agnieszka,1
5e779,5e779_session2_listb_speeded_trial134_pumpkin.wav,2,b,peeded,134,pumpkin,893,correct,NA,Mar 14 2023 10:16:03,Agnieszka,1
5e779,5e779_session2_listb_speeded_trial135_trumpet.wav,2,b,peeded,135,trumpet,753,correct,NA,Mar 14 2023 10:16:10,Agnieszka,1
5e779,5e779_session2_listb_speeded_trial136_honey.wav,2,b,peeded,136,honey,722,correct,NA,Mar 14 2023 10:16:16,Agnieszka,1
5e779,5e779_session2_listb_speeded_trial137_telephone.wav,2,b,peeded,137,telephone,727,correct,NA,Mar 14 2023 10:16:25,Agnieszka,1
5e779,5e779_session2_listb_speeded_trial138_parachute.wav,2,b,peeded,138,parachute,1105,correct,NA,Mar 14 2023 10:16:32,Agnieszka,1
5e779,5e779_session2_listb_speeded_trial139_finger.wav,2,b,peeded,139,finger,837,correct,NA,Mar 14 2023 10:16:46,Agnieszka,1
5e779,5e779_session2_listb_speeded_trial140_farm.wav,2,b,peeded,140,farm,-1,wrong_word,NA,Mar 14 2023 10:16:53,Agnieszka,1
5e779,5e779_session2_listb_speeded_trial141_shadow.wav,2,b,peeded,141,shadow,987,correct,NA,Mar 14 2023 10:17:06,Agnieszka,1
5e779,5e779_session2_listb_speeded_trial142_greenhouse.wav,2,b,peeded,142,greenhouse,830,correct,NA,Mar 14 2023 10:17:15,Agnieszka,1
5e779,5e779_session2_listb_speeded_trial143_girl.wav,2,b,peeded,143,girl,741,correct,NA,Mar 14 2023 10:17:23,Agnieszka,1
5e779,5e779_session2_listb_speeded_trial144_microphone.wav,2,b,peeded,144,microphone,722,correct,NA,Mar 14 2023 10:17:30,Agnieszka,1
5e779,5e779_session2_listb_speeded_trial145_thermometer.wav,2,b,peeded,145,thermometer,822,correct,NA,Mar 14 2023 10:17:36,Agnieszka,1
5e779,5e779_session2_listb_speeded_trial146_lemon.wav,2,b,peeded,146,lemon,862,correct,NA,Mar 14 2023 10:17:43,Agnieszka,1
5e779,5e779_session2_listb_speeded_trial147_handle.wav,2,b,peeded,147,handle,829,correct,NA,Mar 14 2023 10:17:50,Agnieszka,1
5e779,5e779_session2_listb_speeded_trial148_volcano.wav,2,b,peeded,148,volcano,839,correct,NA,Mar 14 2023 10:18:08,Agnieszka,1
5e779,5e779_session2_listb_speeded_trial149_man.wav,2,b,peeded,149,man,810,correct,NA,Mar 14 2023 10:18:13,Agnieszka,1
5e779,5e779_session2_listb_speeded_trial150_tank.wav,2,b,peeded,150,tank,823,correct,NA,Mar 14 2023 10:18:20,Agnieszka,1
