Participant_ID,File_Name,Session,List,Type_Trial,Trial_Nbr,Target,RT,Response_Trial,Comment,Date_Correction,Assessor_Name,Processed
5efcb,5efcb_session2_lista_naming_trial001_olive.wav,2,a,naming,1,olive,855,correct,NA,Apr 13 2023 10:05:31,Agnieszka,1
5efcb,5efcb_session2_lista_naming_trial002_castle.wav,2,a,naming,2,castle,848,correct,NA,Apr 13 2023 10:22:51,Agnieszka,1
5efcb,5efcb_session2_lista_naming_trial003_drawer.wav,2,a,naming,3,drawer,1212,correct,NA,Apr 13 2023 10:23:05,Agnieszka,1
5efcb,5efcb_session2_lista_naming_trial004_tie.wav,2,a,naming,4,tie,877,correct,NA,Apr 13 2023 10:23:14,Agnieszka,1
5efcb,5efcb_session2_lista_naming_trial005_tattoo.wav,2,a,naming,5,tattoo,-1,disfluency,NA,Apr 13 2023 10:23:21,Agnieszka,1
5efcb,5efcb_session2_lista_naming_trial006_glove.wav,2,a,naming,6,glove,-1,wrong_word,NA,Apr 13 2023 10:23:29,Agnieszka,1
5efcb,5efcb_session2_lista_naming_trial007_ghost.wav,2,a,naming,7,ghost,871,correct,NA,Apr 13 2023 10:23:39,Agnieszka,1
5efcb,5efcb_session2_lista_naming_trial008_comb.wav,2,a,naming,8,comb,-1,wrong_word,NA,Apr 13 2023 10:23:45,Agnieszka,1
5efcb,5efcb_session2_lista_naming_trial009_onion.wav,2,a,naming,9,onion,1020,correct,NA,Apr 13 2023 10:23:52,Agnieszka,1
5efcb,5efcb_session2_lista_naming_trial010_tree.wav,2,a,naming,10,tree,915,correct,NA,Apr 13 2023 10:24:01,Agnieszka,1
5efcb,5efcb_session2_lista_naming_trial011_nest.wav,2,a,naming,11,nest,944,correct,NA,Apr 13 2023 10:24:11,Agnieszka,1
5efcb,5efcb_session2_lista_naming_trial012_kiwi.wav,2,a,naming,12,kiwi,-1,disfluency,NA,Apr 13 2023 10:24:18,Agnieszka,1
5efcb,5efcb_session2_lista_naming_trial013_boxer.wav,2,a,naming,13,boxer,893,correct,NA,Apr 13 2023 10:24:36,Agnieszka,1
5efcb,5efcb_session2_lista_naming_trial014_snake.wav,2,a,naming,14,snake,785,correct,NA,Apr 13 2023 10:24:45,Agnieszka,1
5efcb,5efcb_session2_lista_naming_trial015_bear.wav,2,a,naming,15,bear,928,correct,NA,Apr 13 2023 10:29:35,Agnieszka,1
5efcb,5efcb_session2_lista_naming_trial016_island.wav,2,a,naming,16,island,874,correct,NA,Apr 13 2023 10:29:49,Agnieszka,1
5efcb,5efcb_session2_lista_naming_trial017_candle.wav,2,a,naming,17,candle,841,correct,NA,Apr 13 2023 10:30:03,Agnieszka,1
5efcb,5efcb_session2_lista_naming_trial018_carrot.wav,2,a,naming,18,carrot,756,correct,NA,Apr 13 2023 10:31:25,Agnieszka,1
5efcb,5efcb_session2_lista_naming_trial019_compass.wav,2,a,naming,19,compass,1380,correct,NA,Apr 13 2023 10:31:32,Agnieszka,1
5efcb,5efcb_session2_lista_naming_trial020_triangle.wav,2,a,naming,20,triangle,832,correct,NA,Apr 13 2023 10:31:38,Agnieszka,1
5efcb,5efcb_session2_lista_naming_trial021_judge.wav,2,a,naming,21,judge,976,correct,NA,Apr 13 2023 10:31:45,Agnieszka,1
5efcb,5efcb_session2_lista_naming_trial022_beak.wav,2,a,naming,22,beak,1024,correct,NA,Apr 13 2023 10:31:51,Agnieszka,1
5efcb,5efcb_session2_lista_naming_trial023_flower.wav,2,a,naming,23,flower,885,correct,NA,Apr 13 2023 10:32:03,Agnieszka,1
5efcb,5efcb_session2_lista_naming_trial024_squirrel.wav,2,a,naming,24,squirrel,801,correct,NA,Apr 13 2023 10:32:12,Agnieszka,1
5efcb,5efcb_session2_lista_naming_trial025_lighter.wav,2,a,naming,25,lighter,880,correct,NA,Apr 13 2023 10:32:24,Agnieszka,1
5efcb,5efcb_session2_lista_naming_trial026_tambourine.wav,2,a,naming,26,tambourine,1175,correct,NA,Apr 13 2023 10:32:32,Agnieszka,1
5efcb,5efcb_session2_lista_naming_trial027_book.wav,2,a,naming,27,book,915,correct,NA,Apr 13 2023 10:32:43,Agnieszka,1
5efcb,5efcb_session2_lista_naming_trial028_koala.wav,2,a,naming,28,koala,-1,disfluency,NA,Apr 13 2023 10:32:47,Agnieszka,1
5efcb,5efcb_session2_lista_naming_trial029_butter.wav,2,a,naming,29,butter,2071,correct,NA,Apr 13 2023 10:32:54,Agnieszka,1
5efcb,5efcb_session2_lista_naming_trial030_pepper.wav,2,a,naming,30,pepper,-1,no_resp,NA,Apr 13 2023 10:33:00,Agnieszka,1
5efcb,5efcb_session2_lista_naming_trial031_coat.wav,2,a,naming,31,coat,1180,correct,NA,Apr 13 2023 10:33:48,Agnieszka,1
5efcb,5efcb_session2_lista_naming_trial032_train.wav,2,a,naming,32,train,903,correct,NA,Apr 13 2023 10:33:55,Agnieszka,1
5efcb,5efcb_session2_lista_naming_trial033_dice.wav,2,a,naming,33,dice,947,correct,NA,Apr 13 2023 10:34:02,Agnieszka,1
5efcb,5efcb_session2_lista_naming_trial034_basket.wav,2,a,naming,34,basket,979,correct,NA,Apr 13 2023 10:34:12,Agnieszka,1
5efcb,5efcb_session2_lista_naming_trial035_mouth.wav,2,a,naming,35,mouth,1269,correct,NA,Apr 13 2023 10:34:18,Agnieszka,1
5efcb,5efcb_session2_lista_naming_trial036_bottle.wav,2,a,naming,36,bottle,931,correct,NA,Apr 13 2023 10:34:28,Agnieszka,1
5efcb,5efcb_session2_lista_naming_trial037_bench.wav,2,a,naming,37,bench,1176,correct,NA,Apr 13 2023 10:34:42,Agnieszka,1
5efcb,5efcb_session2_lista_naming_trial038_heel.wav,2,a,naming,38,heel,998,correct,NA,Apr 13 2023 10:34:50,Agnieszka,1
5efcb,5efcb_session2_lista_naming_trial039_fork.wav,2,a,naming,39,fork,1428,correct,NA,Apr 13 2023 10:35:00,Agnieszka,1
5efcb,5efcb_session2_lista_naming_trial040_tomato.wav,2,a,naming,40,tomato,1489,correct,NA,Apr 13 2023 10:35:10,Agnieszka,1
5efcb,5efcb_session2_lista_naming_trial041_peg.wav,2,a,naming,41,peg,1040,correct,NA,Apr 13 2023 10:35:20,Agnieszka,1
5efcb,5efcb_session2_lista_naming_trial042_dress.wav,2,a,naming,42,dress,804,correct,NA,Apr 13 2023 10:35:31,Agnieszka,1
5efcb,5efcb_session2_lista_naming_trial043_kitchen.wav,2,a,naming,43,kitchen,871,correct,NA,Apr 13 2023 10:35:52,Agnieszka,1
5efcb,5efcb_session2_lista_naming_trial044_mountain.wav,2,a,naming,44,mountain,794,correct,NA,Apr 13 2023 10:36:00,Agnieszka,1
5efcb,5efcb_session2_lista_naming_trial045_whale.wav,2,a,naming,45,whale,985,correct,NA,Apr 13 2023 10:36:18,Agnieszka,1
5efcb,5efcb_session2_lista_naming_trial046_fence.wav,2,a,naming,46,fence,1374,correct,NA,Apr 13 2023 10:36:46,Agnieszka,1
5efcb,5efcb_session2_lista_naming_trial047_skirt.wav,2,a,naming,47,skirt,1966,correct,NA,Apr 13 2023 10:36:51,Agnieszka,1
5efcb,5efcb_session2_lista_naming_trial048_hat.wav,2,a,naming,48,hat,864,correct,NA,Apr 13 2023 10:36:58,Agnieszka,1
5efcb,5efcb_session2_lista_naming_trial049_windmill.wav,2,a,naming,49,windmill,998,correct,NA,Apr 13 2023 10:37:06,Agnieszka,1
5efcb,5efcb_session2_lista_naming_trial050_lawnmower.wav,2,a,naming,50,lawnmower,966,correct,NA,Apr 13 2023 10:37:13,Agnieszka,1
5efcb,5efcb_session2_lista_naming_trial051_ear.wav,2,a,naming,51,ear,864,correct,NA,Apr 13 2023 10:37:23,Agnieszka,1
5efcb,5efcb_session2_lista_naming_trial052_map.wav,2,a,naming,52,map,842,correct,NA,Apr 13 2023 10:37:31,Agnieszka,1
5efcb,5efcb_session2_lista_naming_trial053_wall.wav,2,a,naming,53,wall,-1,disfluency,NA,Apr 13 2023 10:37:57,Agnieszka,1
5efcb,5efcb_session2_lista_naming_trial054_bull.wav,2,a,naming,54,bull,-1,no_resp,and 'uh',Apr 13 2023 10:38:09,Agnieszka,1
5efcb,5efcb_session2_lista_naming_trial055_drum.wav,2,a,naming,55,drum,1670,correct,NA,Apr 13 2023 10:38:16,Agnieszka,1
5efcb,5efcb_session2_lista_naming_trial056_arm.wav,2,a,naming,56,arm,2342,correct,NA,Apr 13 2023 10:38:22,Agnieszka,1
5efcb,5efcb_session2_lista_naming_trial057_tunnel.wav,2,a,naming,57,tunnel,1460,correct,NA,Apr 13 2023 10:38:29,Agnieszka,1
5efcb,5efcb_session2_lista_naming_trial058_limo.wav,2,a,naming,58,limo,1090,correct,NA,Apr 13 2023 10:38:37,Agnieszka,1
5efcb,5efcb_session2_lista_naming_trial059_cherry.wav,2,a,naming,59,cherry,1090,correct,NA,Apr 13 2023 10:38:51,Agnieszka,1
5efcb,5efcb_session2_lista_naming_trial060_swan.wav,2,a,naming,60,swan,836,correct,NA,Apr 13 2023 10:38:59,Agnieszka,1
5efcb,5efcb_session2_lista_naming_trial061_rabbit.wav,2,a,naming,61,rabbit,823,correct,NA,Apr 13 2023 10:49:22,Agnieszka,1
5efcb,5efcb_session2_lista_naming_trial062_bike.wav,2,a,naming,62,bike,1828,correct,NA,Apr 13 2023 10:49:31,Agnieszka,1
5efcb,5efcb_session2_lista_naming_trial063_camel.wav,2,a,naming,63,camel,1514,correct,NA,Apr 13 2023 10:49:37,Agnieszka,1
5efcb,5efcb_session2_lista_naming_trial064_doughnut.wav,2,a,naming,64,doughnut,950,correct,NA,Apr 13 2023 10:49:46,Agnieszka,1
5efcb,5efcb_session2_lista_naming_trial065_bracelet.wav,2,a,naming,65,bracelet,1170,correct,NA,Apr 13 2023 10:49:55,Agnieszka,1
5efcb,5efcb_session2_lista_naming_trial066_suit.wav,2,a,naming,66,suit,-1,disfluency,NA,Apr 13 2023 10:50:05,Agnieszka,1
5efcb,5efcb_session2_lista_naming_trial067_arrow.wav,2,a,naming,67,arrow,906,correct,NA,Apr 13 2023 10:50:14,Agnieszka,1
5efcb,5efcb_session2_lista_naming_trial068_medal.wav,2,a,naming,68,medal,880,correct,NA,Apr 13 2023 10:50:37,Agnieszka,1
5efcb,5efcb_session2_lista_naming_trial069_sword.wav,2,a,naming,69,sword,1082,correct,NA,Apr 13 2023 10:50:44,Agnieszka,1
5efcb,5efcb_session2_lista_naming_trial070_wheelbarrow.wav,2,a,naming,70,wheelbarrow,842,correct,NA,Apr 13 2023 10:50:50,Agnieszka,1
5efcb,5efcb_session2_lista_naming_trial071_teacher.wav,2,a,naming,71,teacher,817,correct,NA,Apr 13 2023 10:50:57,Agnieszka,1
5efcb,5efcb_session2_lista_naming_trial072_kite.wav,2,a,naming,72,kite,925,correct,NA,Apr 13 2023 10:51:03,Agnieszka,1
5efcb,5efcb_session2_lista_naming_trial073_pear.wav,2,a,naming,73,pear,1173,correct,NA,Apr 13 2023 10:51:11,Agnieszka,1
5efcb,5efcb_session2_lista_naming_trial074_butterfly.wav,2,a,naming,74,butterfly,1075,correct,NA,Apr 13 2023 10:51:24,Agnieszka,1
5efcb,5efcb_session2_lista_naming_trial075_shoe.wav,2,a,naming,75,shoe,912,correct,NA,Apr 13 2023 10:51:32,Agnieszka,1
5efcb,5efcb_session2_lista_naming_trial076_wing.wav,2,a,naming,76,wing,1100,correct,NA,Apr 13 2023 10:51:39,Agnieszka,1
5efcb,5efcb_session2_lista_naming_trial077_saw.wav,2,a,naming,77,saw,1132,correct,NA,Apr 13 2023 10:51:46,Agnieszka,1
5efcb,5efcb_session2_lista_naming_trial078_bus.wav,2,a,naming,78,bus,934,correct,NA,Apr 13 2023 10:51:53,Agnieszka,1
5efcb,5efcb_session2_lista_naming_trial079_orange.wav,2,a,naming,79,orange,1084,correct,NA,Apr 13 2023 10:52:05,Agnieszka,1
5efcb,5efcb_session2_lista_naming_trial080_pocket.wav,2,a,naming,80,pocket,1035,correct,NA,Apr 13 2023 10:52:16,Agnieszka,1
5efcb,5efcb_session2_lista_naming_trial081_lighthouse.wav,2,a,naming,81,lighthouse,836,correct,NA,Apr 13 2023 10:52:24,Agnieszka,1
5efcb,5efcb_session2_lista_naming_trial082_shield.wav,2,a,naming,82,shield,973,correct,NA,Apr 13 2023 10:52:32,Agnieszka,1
5efcb,5efcb_session2_lista_naming_trial083_knife.wav,2,a,naming,83,knife,890,correct,NA,Apr 13 2023 10:52:41,Agnieszka,1
5efcb,5efcb_session2_lista_naming_trial084_bullet.wav,2,a,naming,84,bullet,1282,correct,NA,Apr 13 2023 10:52:49,Agnieszka,1
5efcb,5efcb_session2_lista_naming_trial085_plumber.wav,2,a,naming,85,plumber,1269,correct,NA,Apr 13 2023 10:52:59,Agnieszka,1
5efcb,5efcb_session2_lista_naming_trial086_hippo.wav,2,a,naming,86,hippo,1106,correct,NA,Apr 13 2023 10:53:06,Agnieszka,1
5efcb,5efcb_session2_lista_naming_trial087_scissors.wav,2,a,naming,87,scissors,791,correct,NA,Apr 13 2023 10:53:13,Agnieszka,1
5efcb,5efcb_session2_lista_naming_trial088_soap.wav,2,a,naming,88,soap,1062,correct,NA,Apr 13 2023 10:53:21,Agnieszka,1
5efcb,5efcb_session2_lista_naming_trial089_flipper.wav,2,a,naming,89,flipper,1234,correct,NA,Apr 13 2023 10:53:40,Agnieszka,1
5efcb,5efcb_session2_lista_naming_trial090_suitcase.wav,2,a,naming,90,suitcase,-1,no_resp,NA,Apr 13 2023 10:53:46,Agnieszka,1
5efcb,5efcb_session2_lista_naming_trial091_jellyfish.wav,2,a,naming,91,jellyfish,1046,correct,NA,Apr 13 2023 10:54:01,Agnieszka,1
5efcb,5efcb_session2_lista_naming_trial092_pencil.wav,2,a,naming,92,pencil,864,correct,NA,Apr 13 2023 10:54:08,Agnieszka,1
5efcb,5efcb_session2_lista_naming_trial093_rhino.wav,2,a,naming,93,rhino,969,correct,NA,Apr 13 2023 10:54:23,Agnieszka,1
5efcb,5efcb_session2_lista_naming_trial094_battery.wav,2,a,naming,94,battery,909,correct,NA,Apr 13 2023 10:54:30,Agnieszka,1
5efcb,5efcb_session2_lista_naming_trial095_fireplace.wav,2,a,naming,95,fireplace,1055,correct,NA,Apr 13 2023 10:54:45,Agnieszka,1
5efcb,5efcb_session2_lista_naming_trial096_cork.wav,2,a,naming,96,cork,1008,correct,NA,Apr 13 2023 10:55:11,Agnieszka,1
5efcb,5efcb_session2_lista_naming_trial097_tap.wav,2,a,naming,97,tap,1438,correct,NA,Apr 13 2023 10:55:21,Agnieszka,1
5efcb,5efcb_session2_lista_naming_trial098_apple.wav,2,a,naming,98,apple,1001,correct,NA,Apr 13 2023 10:55:31,Agnieszka,1
5efcb,5efcb_session2_lista_naming_trial099_shower.wav,2,a,naming,99,shower,839,correct,NA,Apr 13 2023 10:55:39,Agnieszka,1
5efcb,5efcb_session2_lista_naming_trial100_pineapple.wav,2,a,naming,100,pineapple,891,correct,NA,Apr 13 2023 10:55:50,Agnieszka,1
5efcb,5efcb_session2_lista_naming_trial101_crab.wav,2,a,naming,101,crab,766,correct,NA,Apr 13 2023 10:56:00,Agnieszka,1
5efcb,5efcb_session2_lista_naming_trial102_rocket.wav,2,a,naming,102,rocket,855,correct,NA,Apr 13 2023 10:56:18,Agnieszka,1
5efcb,5efcb_session2_lista_naming_trial103_circle.wav,2,a,naming,103,circle,1138,correct,NA,Apr 13 2023 10:56:25,Agnieszka,1
5efcb,5efcb_session2_lista_naming_trial104_owl.wav,2,a,naming,104,owl,903,correct,NA,Apr 13 2023 10:56:34,Agnieszka,1
5efcb,5efcb_session2_lista_naming_trial105_helicopter.wav,2,a,naming,105,helicopter,912,correct,NA,Apr 13 2023 10:56:42,Agnieszka,1
5efcb,5efcb_session2_lista_naming_trial106_fox.wav,2,a,naming,106,fox,912,correct,NA,Apr 13 2023 10:57:02,Agnieszka,1
5efcb,5efcb_session2_lista_naming_trial107_zebra.wav,2,a,naming,107,zebra,1113,correct,NA,Apr 13 2023 10:59:39,Agnieszka,1
5efcb,5efcb_session2_lista_naming_trial108_tractor.wav,2,a,naming,108,tractor,979,correct,NA,Apr 13 2023 11:00:49,Agnieszka,1
5efcb,5efcb_session2_lista_naming_trial109_pipe.wav,2,a,naming,109,pipe,1250,correct,NA,Apr 13 2023 11:01:00,Agnieszka,1
5efcb,5efcb_session2_lista_naming_trial110_potato.wav,2,a,naming,110,potato,1004,correct,NA,Apr 13 2023 11:01:25,Agnieszka,1
5efcb,5efcb_session2_lista_naming_trial111_elbow.wav,2,a,naming,111,elbow,925,correct,NA,Apr 13 2023 11:02:00,Agnieszka,1
5efcb,5efcb_session2_lista_naming_trial112_lamp.wav,2,a,naming,112,lamp,1100,correct,NA,Apr 13 2023 11:02:30,Agnieszka,1
5efcb,5efcb_session2_lista_naming_trial113_bib.wav,2,a,naming,113,bib,1600,correct,NA,Apr 13 2023 11:03:06,Agnieszka,1
5efcb,5efcb_session2_lista_naming_trial114_tray.wav,2,a,naming,114,tray,973,correct,NA,Apr 13 2023 11:03:17,Agnieszka,1
5efcb,5efcb_session2_lista_naming_trial115_submarine.wav,2,a,naming,115,submarine,1132,correct,NA,Apr 13 2023 11:03:25,Agnieszka,1
5efcb,5efcb_session2_lista_naming_trial116_avocado.wav,2,a,naming,116,avocado,918,correct,NA,Apr 13 2023 11:05:00,Agnieszka,1
5efcb,5efcb_session2_lista_naming_trial117_sun.wav,2,a,naming,117,sun,801,correct,NA,Apr 13 2023 11:05:30,Agnieszka,1
5efcb,5efcb_session2_lista_naming_trial118_mermaid.wav,2,a,naming,118,mermaid,-1,no_resp,NA,Apr 13 2023 11:05:35,Agnieszka,1
5efcb,5efcb_session2_lista_naming_trial119_dummy.wav,2,a,naming,119,dummy,2043,correct,NA,Apr 13 2023 11:05:44,Agnieszka,1
5efcb,5efcb_session2_lista_naming_trial120_fairy.wav,2,a,naming,120,fairy,899,correct,NA,Apr 13 2023 11:05:55,Agnieszka,1
5efcb,5efcb_session2_lista_naming_trial121_thumb.wav,2,a,naming,121,thumb,813,correct,NA,Apr 13 2023 11:06:06,Agnieszka,1
5efcb,5efcb_session2_lista_naming_trial122_sausage.wav,2,a,naming,122,sausage,1310,correct,NA,Apr 13 2023 11:06:13,Agnieszka,1
5efcb,5efcb_session2_lista_naming_trial123_sweet.wav,2,a,naming,123,sweet,1138,correct,NA,Apr 13 2023 11:06:20,Agnieszka,1
5efcb,5efcb_session2_lista_naming_trial124_magnet.wav,2,a,naming,124,magnet,1138,correct,NA,Apr 13 2023 11:06:29,Agnieszka,1
5efcb,5efcb_session2_lista_naming_trial125_fridge.wav,2,a,naming,125,fridge,880,correct,NA,Apr 13 2023 11:06:44,Agnieszka,1
5efcb,5efcb_session2_lista_naming_trial126_rose.wav,2,a,naming,126,rose,912,correct,NA,Apr 13 2023 11:06:51,Agnieszka,1
5efcb,5efcb_session2_lista_naming_trial127_key.wav,2,a,naming,127,key,1017,correct,NA,Apr 13 2023 11:10:35,Agnieszka,1
5efcb,5efcb_session2_lista_naming_trial128_bell.wav,2,a,naming,128,bell,938,correct,NA,Apr 13 2023 11:10:41,Agnieszka,1
5efcb,5efcb_session2_lista_naming_trial129_zip.wav,2,a,naming,129,zip,954,correct,NA,Apr 13 2023 11:10:48,Agnieszka,1
5efcb,5efcb_session2_lista_naming_trial130_doctor.wav,2,a,naming,130,doctor,1033,correct,NA,Apr 13 2023 11:10:56,Agnieszka,1
5efcb,5efcb_session2_lista_naming_trial131_robot.wav,2,a,naming,131,robot,887,correct,NA,Apr 13 2023 11:11:10,Agnieszka,1
5efcb,5efcb_session2_lista_naming_trial132_bone.wav,2,a,naming,132,bone,775,correct,NA,Apr 13 2023 11:11:18,Agnieszka,1
5efcb,5efcb_session2_lista_naming_trial133_goat.wav,2,a,naming,133,goat,1371,correct,NA,Apr 13 2023 11:11:28,Agnieszka,1
5efcb,5efcb_session2_lista_naming_trial134_kangaroo.wav,2,a,naming,134,kangaroo,1081,correct,NA,Apr 13 2023 11:11:41,Agnieszka,1
5efcb,5efcb_session2_lista_naming_trial135_computer.wav,2,a,naming,135,computer,842,correct,NA,Apr 13 2023 11:11:54,Agnieszka,1
5efcb,5efcb_session2_lista_naming_trial136_net.wav,2,a,naming,136,net,1135,correct,NA,Apr 13 2023 11:12:04,Agnieszka,1
5efcb,5efcb_session2_lista_naming_trial137_wave.wav,2,a,naming,137,wave,998,correct,NA,Apr 13 2023 11:12:14,Agnieszka,1
5efcb,5efcb_session2_lista_naming_trial138_puppet.wav,2,a,naming,138,puppet,1785,correct,NA,Apr 13 2023 11:12:20,Agnieszka,1
5efcb,5efcb_session2_lista_naming_trial139_clown.wav,2,a,naming,139,clown,1154,correct,NA,Apr 13 2023 11:12:29,Agnieszka,1
5efcb,5efcb_session2_lista_naming_trial140_donkey.wav,2,a,naming,140,donkey,1390,correct,NA,Apr 13 2023 11:12:37,Agnieszka,1
5efcb,5efcb_session2_lista_naming_trial141_tongue.wav,2,a,naming,141,tongue,1008,correct,NA,Apr 13 2023 11:12:43,Agnieszka,1
5efcb,5efcb_session2_lista_naming_trial142_curtain.wav,2,a,naming,142,curtain,1297,correct,NA,Apr 13 2023 11:12:53,Agnieszka,1
5efcb,5efcb_session2_lista_naming_trial143_star.wav,2,a,naming,143,star,810,correct,NA,Apr 13 2023 11:12:59,Agnieszka,1
5efcb,5efcb_session2_lista_naming_trial144_flag.wav,2,a,naming,144,flag,740,correct,NA,Apr 13 2023 11:13:09,Agnieszka,1
5efcb,5efcb_session2_lista_naming_trial145_tiger.wav,2,a,naming,145,tiger,855,correct,NA,Apr 13 2023 11:13:17,Agnieszka,1
5efcb,5efcb_session2_lista_naming_trial146_ruler.wav,2,a,naming,146,ruler,922,correct,NA,Apr 13 2023 11:13:26,Agnieszka,1
5efcb,5efcb_session2_lista_naming_trial147_caterpillar.wav,2,a,naming,147,caterpillar,1778,correct,NA,Apr 13 2023 11:13:33,Agnieszka,1
5efcb,5efcb_session2_lista_naming_trial148_lung.wav,2,a,naming,148,lung,-1,disfluency,NA,Apr 13 2023 11:13:38,Agnieszka,1
5efcb,5efcb_session2_lista_naming_trial149_gym.wav,2,a,naming,149,gym,1205,correct,NA,Apr 13 2023 11:13:45,Agnieszka,1
5efcb,5efcb_session2_lista_naming_trial150_queen.wav,2,a,naming,150,queen,-1,no_resp,NA,Apr 13 2023 11:13:51,Agnieszka,1
