Participant_ID,File_Name,Session,List,Type_Trial,Trial_Nbr,Target,RT,Response_Trial,Comment,Date_Correction,Assessor_Name,Processed
56411,56411_session2_lista_naming_trial001_pear.wav,2,a,naming,1,pear,784,correct,NA,Apr 19 2023 20:18:41,Radhika,1
56411,56411_session2_lista_naming_trial002_comb.wav,2,a,naming,2,comb,657,correct,NA,Apr 19 2023 20:19:35,Radhika,1
56411,56411_session2_lista_naming_trial003_zebra.wav,2,a,naming,3,zebra,811,correct,NA,Apr 19 2023 20:20:17,Radhika,1
56411,56411_session2_lista_naming_trial004_dummy.wav,2,a,naming,4,dummy,877,correct,NA,Apr 19 2023 20:21:27,Radhika,1
56411,56411_session2_lista_naming_trial005_ruler.wav,2,a,naming,5,ruler,841,correct,NA,Apr 19 2023 20:21:54,Radhika,1
56411,56411_session2_lista_naming_trial006_magnet.wav,2,a,naming,6,magnet,1237,correct,NA,Apr 19 2023 20:22:29,Radhika,1
56411,56411_session2_lista_naming_trial007_thumb.wav,2,a,naming,7,thumb,816,correct,NA,Apr 19 2023 20:23:43,Radhika,1
56411,56411_session2_lista_naming_trial008_hat.wav,2,a,naming,8,hat,669,correct,NA,Apr 19 2023 20:24:24,Radhika,1
56411,56411_session2_lista_naming_trial009_kite.wav,2,a,naming,9,kite,877,correct,NA,Apr 19 2023 20:25:12,Radhika,1
56411,56411_session2_lista_naming_trial010_star.wav,2,a,naming,10,star,782,correct,NA,Apr 19 2023 20:26:40,Radhika,1
56411,56411_session2_lista_naming_trial011_doughnut.wav,2,a,naming,11,doughnut,809,correct,NA,Apr 19 2023 20:27:17,Radhika,1
56411,56411_session2_lista_naming_trial012_drum.wav,2,a,naming,12,drum,830,correct,NA,Apr 19 2023 20:28:01,Radhika,1
56411,56411_session2_lista_naming_trial013_camel.wav,2,a,naming,13,camel,745,correct,NA,Apr 19 2023 20:29:22,Radhika,1
56411,56411_session2_lista_naming_trial014_pepper.wav,2,a,naming,14,pepper,859,correct,NA,Apr 19 2023 20:30:43,Radhika,1
56411,56411_session2_lista_naming_trial015_bib.wav,2,a,naming,15,bib,950,correct,NA,Apr 19 2023 20:31:04,Radhika,1
56411,56411_session2_lista_naming_trial016_wing.wav,2,a,naming,16,wing,882,correct,NA,Apr 19 2023 20:31:20,Radhika,1
56411,56411_session2_lista_naming_trial017_beak.wav,2,a,naming,17,beak,1192,correct,NA,Apr 19 2023 20:31:44,Radhika,1
56411,56411_session2_lista_naming_trial018_tattoo.wav,2,a,naming,18,tattoo,-1,wrong_word,NA,Apr 19 2023 20:31:51,Radhika,1
56411,56411_session2_lista_naming_trial019_kitchen.wav,2,a,naming,19,kitchen,861,correct,NA,Apr 19 2023 20:32:27,Radhika,1
56411,56411_session2_lista_naming_trial020_fence.wav,2,a,naming,20,fence,817,correct,NA,Apr 19 2023 20:33:10,Radhika,1
56411,56411_session2_lista_naming_trial021_tomato.wav,2,a,naming,21,tomato,816,correct,NA,Apr 19 2023 21:49:43,Radhika,1
56411,56411_session2_lista_naming_trial022_doctor.wav,2,a,naming,22,doctor,1245,correct,NA,Apr 19 2023 21:50:53,Radhika,1
56411,56411_session2_lista_naming_trial023_rhino.wav,2,a,naming,23,rhino,815,correct,NA,Apr 19 2023 21:57:15,Radhika,1
56411,56411_session2_lista_naming_trial024_mouth.wav,2,a,naming,24,mouth,773,correct,NA,Apr 19 2023 21:57:31,Radhika,1
56411,56411_session2_lista_naming_trial025_bus.wav,2,a,naming,25,bus,936,correct,NA,Apr 19 2023 21:57:48,Radhika,1
56411,56411_session2_lista_naming_trial026_sword.wav,2,a,naming,26,sword,780,correct,NA,Apr 19 2023 21:58:17,Radhika,1
56411,56411_session2_lista_naming_trial027_cork.wav,2,a,naming,27,cork,905,correct,NA,Apr 19 2023 21:58:53,Radhika,1
56411,56411_session2_lista_naming_trial028_island.wav,2,a,naming,28,island,1030,correct,NA,Apr 19 2023 21:59:09,Radhika,1
56411,56411_session2_lista_naming_trial029_fridge.wav,2,a,naming,29,fridge,1198,correct,NA,Apr 19 2023 21:59:39,Radhika,1
56411,56411_session2_lista_naming_trial030_helicopter.wav,2,a,naming,30,helicopter,1132,correct,NA,Apr 19 2023 22:00:09,Radhika,1
56411,56411_session2_lista_naming_trial031_key.wav,2,a,naming,31,key,1202,correct,NA,Apr 19 2023 22:04:04,Radhika,1
56411,56411_session2_lista_naming_trial032_bottle.wav,2,a,naming,32,bottle,928,correct,NA,Apr 19 2023 22:04:23,Radhika,1
56411,56411_session2_lista_naming_trial033_butterfly.wav,2,a,naming,33,butterfly,993,correct,NA,Apr 19 2023 22:04:41,Radhika,1
56411,56411_session2_lista_naming_trial034_shoe.wav,2,a,naming,34,shoe,898,correct,NA,Apr 19 2023 22:05:06,Radhika,1
56411,56411_session2_lista_naming_trial035_basket.wav,2,a,naming,35,basket,1549,correct,NA,Apr 19 2023 22:05:26,Radhika,1
56411,56411_session2_lista_naming_trial036_limo.wav,2,a,naming,36,limo,1460,correct,NA,Apr 19 2023 22:09:01,Radhika,1
56411,56411_session2_lista_naming_trial037_shower.wav,2,a,naming,37,shower,1534,correct,NA,Apr 19 2023 22:09:35,Radhika,1
56411,56411_session2_lista_naming_trial038_bell.wav,2,a,naming,38,bell,1599,correct,NA,Apr 19 2023 22:09:59,Radhika,1
56411,56411_session2_lista_naming_trial039_sun.wav,2,a,naming,39,sun,820,correct,NA,Apr 19 2023 22:10:26,Radhika,1
56411,56411_session2_lista_naming_trial040_map.wav,2,a,naming,40,map,1079,correct,NA,Apr 19 2023 22:10:40,Radhika,1
56411,56411_session2_lista_naming_trial041_compass.wav,2,a,naming,41,compass,-1,wrong_word,NA,Apr 19 2023 22:11:17,Radhika,1
56411,56411_session2_lista_naming_trial042_koala.wav,2,a,naming,42,koala,1092,correct,NA,Apr 19 2023 22:11:45,Radhika,1
56411,56411_session2_lista_naming_trial043_squirrel.wav,2,a,naming,43,squirrel,1766,correct,NA,Apr 19 2023 22:12:39,Radhika,1
56411,56411_session2_lista_naming_trial044_bullet.wav,2,a,naming,44,bullet,1524,correct,NA,Apr 19 2023 22:13:09,Radhika,1
56411,56411_session2_lista_naming_trial045_sweet.wav,2,a,naming,45,sweet,848,correct,NA,Apr 19 2023 22:14:14,Radhika,1
56411,56411_session2_lista_naming_trial046_whale.wav,2,a,naming,46,whale,1022,correct,NA,Apr 19 2023 22:14:30,Radhika,1
56411,56411_session2_lista_naming_trial047_coat.wav,2,a,naming,47,coat,1193,correct,NA,Apr 19 2023 22:15:02,Radhika,1
56411,56411_session2_lista_naming_trial048_fairy.wav,2,a,naming,48,fairy,907,correct,NA,Apr 19 2023 22:15:29,Radhika,1
56411,56411_session2_lista_naming_trial049_pineapple.wav,2,a,naming,49,pineapple,969,correct,NA,Apr 19 2023 22:15:53,Radhika,1
56411,56411_session2_lista_naming_trial050_carrot.wav,2,a,naming,50,carrot,715,correct,NA,Apr 19 2023 22:16:36,Radhika,1
56411,56411_session2_lista_naming_trial051_tray.wav,2,a,naming,51,tray,960,correct,NA,Apr 19 2023 22:23:16,Radhika,1
56411,56411_session2_lista_naming_trial052_mountain.wav,2,a,naming,52,mountain,813,correct,NA,Apr 19 2023 22:23:31,Radhika,1
56411,56411_session2_lista_naming_trial053_bench.wav,2,a,naming,53,bench,1105,correct,NA,Apr 19 2023 22:24:12,Radhika,1
56411,56411_session2_lista_naming_trial054_rose.wav,2,a,naming,54,rose,1207,correct,NA,Apr 19 2023 22:24:38,Radhika,1
56411,56411_session2_lista_naming_trial055_glove.wav,2,a,naming,55,glove,946,correct,NA,Apr 19 2023 22:25:20,Radhika,1
56411,56411_session2_lista_naming_trial056_heel.wav,2,a,naming,56,heel,980,correct,NA,Apr 19 2023 22:25:47,Radhika,1
56411,56411_session2_lista_naming_trial057_onion.wav,2,a,naming,57,onion,875,correct,NA,Apr 19 2023 22:26:32,Radhika,1
56411,56411_session2_lista_naming_trial058_crab.wav,2,a,naming,58,crab,694,correct,NA,Apr 19 2023 22:27:20,Radhika,1
56411,56411_session2_lista_naming_trial059_tree.wav,2,a,naming,59,tree,871,correct,NA,Apr 19 2023 22:27:54,Radhika,1
56411,56411_session2_lista_naming_trial060_boxer.wav,2,a,naming,60,boxer,976,correct,NA,Apr 19 2023 22:28:33,Radhika,1
56411,56411_session2_lista_naming_trial061_lighter.wav,2,a,naming,61,lighter,921,correct,NA,Apr 19 2023 22:29:13,Radhika,1
56411,56411_session2_lista_naming_trial062_bike.wav,2,a,naming,62,bike,-1,wrong_word,NA,Apr 19 2023 22:30:01,Radhika,1
56411,56411_session2_lista_naming_trial063_avocado.wav,2,a,naming,63,avocado,884,correct,NA,Apr 19 2023 22:30:25,Radhika,1
56411,56411_session2_lista_naming_trial064_donkey.wav,2,a,naming,64,donkey,1190,correct,NA,Apr 19 2023 22:30:59,Radhika,1
56411,56411_session2_lista_naming_trial065_ghost.wav,2,a,naming,65,ghost,863,correct,NA,Apr 19 2023 22:31:37,Radhika,1
56411,56411_session2_lista_naming_trial066_bracelet.wav,2,a,naming,66,bracelet,1349,correct,NA,Apr 19 2023 22:31:56,Radhika,1
56411,56411_session2_lista_naming_trial067_hippo.wav,2,a,naming,67,hippo,1021,correct,NA,Apr 19 2023 22:32:47,Radhika,1
56411,56411_session2_lista_naming_trial068_scissors.wav,2,a,naming,68,scissors,1124,correct,NA,Apr 19 2023 22:33:18,Radhika,1
56411,56411_session2_lista_naming_trial069_nest.wav,2,a,naming,69,nest,994,correct,NA,Apr 19 2023 22:33:37,Radhika,1
56411,56411_session2_lista_naming_trial070_triangle.wav,2,a,naming,70,triangle,859,correct,NA,Apr 19 2023 22:34:11,Radhika,1
56411,56411_session2_lista_naming_trial071_clown.wav,2,a,naming,71,clown,1043,correct,NA,Apr 19 2023 22:34:44,Radhika,1
56411,56411_session2_lista_naming_trial072_lighthouse.wav,2,a,naming,72,lighthouse,845,correct,NA,Apr 19 2023 22:35:04,Radhika,1
56411,56411_session2_lista_naming_trial073_flag.wav,2,a,naming,73,flag,709,correct,NA,Apr 19 2023 22:35:36,Radhika,1
56411,56411_session2_lista_naming_trial074_queen.wav,2,a,naming,74,queen,1018,correct,NA,Apr 19 2023 22:36:00,Radhika,1
56411,56411_session2_lista_naming_trial075_lawnmower.wav,2,a,naming,75,lawnmower,880,correct,NA,Apr 19 2023 22:36:20,Radhika,1
56411,56411_session2_lista_naming_trial076_fireplace.wav,2,a,naming,76,fireplace,1086,correct,NA,Apr 19 2023 22:36:40,Radhika,1
56411,56411_session2_lista_naming_trial077_candle.wav,2,a,naming,77,candle,850,correct,NA,Apr 19 2023 22:37:35,Radhika,1
56411,56411_session2_lista_naming_trial078_castle.wav,2,a,naming,78,castle,865,correct,NA,Apr 19 2023 22:38:30,Radhika,1
56411,56411_session2_lista_naming_trial079_rocket.wav,2,a,naming,79,rocket,1381,correct,NA,Apr 19 2023 22:38:47,Radhika,1
56411,56411_session2_lista_naming_trial080_book.wav,2,a,naming,80,book,1229,correct,NA,Apr 19 2023 22:39:12,Radhika,1
56411,56411_session2_lista_naming_trial081_peg.wav,2,a,naming,81,peg,809,correct,NA,Apr 19 2023 22:39:45,Radhika,1
56411,56411_session2_lista_naming_trial082_rabbit.wav,2,a,naming,82,rabbit,1080,correct,NA,Apr 19 2023 22:40:06,Radhika,1
56411,56411_session2_lista_naming_trial083_arrow.wav,2,a,naming,83,arrow,1027,correct,NA,Apr 19 2023 22:40:45,Radhika,1
56411,56411_session2_lista_naming_trial084_bear.wav,2,a,naming,84,bear,842,correct,NA,Apr 19 2023 22:41:20,Radhika,1
56411,56411_session2_lista_naming_trial085_suit.wav,2,a,naming,85,suit,1901,correct,NA,Apr 19 2023 22:42:01,Radhika,1
56411,56411_session2_lista_naming_trial086_knife.wav,2,a,naming,86,knife,859,correct,NA,Apr 19 2023 22:42:16,Radhika,1
56411,56411_session2_lista_naming_trial087_arm.wav,2,a,naming,87,arm,1077,correct,NA,Apr 19 2023 22:42:56,Radhika,1
56411,56411_session2_lista_naming_trial088_robot.wav,2,a,naming,88,robot,1431,correct,NA,Apr 19 2023 22:43:17,Radhika,1
56411,56411_session2_lista_naming_trial089_bull.wav,2,a,naming,89,bull,2458,correct,NA,Apr 19 2023 22:43:48,Radhika,1
56411,56411_session2_lista_naming_trial090_wave.wav,2,a,naming,90,wave,868,correct,NA,Apr 19 2023 22:44:06,Radhika,1
56411,56411_session2_lista_naming_trial091_medal.wav,2,a,naming,91,medal,960,correct,NA,Apr 19 2023 22:44:26,Radhika,1
56411,56411_session2_lista_naming_trial092_lung.wav,2,a,naming,92,lung,1132,correct,NA,Apr 19 2023 22:44:55,Radhika,1
56411,56411_session2_lista_naming_trial093_suitcase.wav,2,a,naming,93,suitcase,848,correct,NA,Apr 19 2023 22:45:17,Radhika,1
56411,56411_session2_lista_naming_trial094_olive.wav,2,a,naming,94,olive,1207,correct,NA,Apr 19 2023 22:45:47,Radhika,1
56411,56411_session2_lista_naming_trial095_plumber.wav,2,a,naming,95,plumber,1057,correct,NA,Apr 19 2023 22:46:27,Radhika,1
56411,56411_session2_lista_naming_trial096_kangaroo.wav,2,a,naming,96,kangaroo,1222,correct,NA,Apr 19 2023 22:47:05,Radhika,1
56411,56411_session2_lista_naming_trial097_wall.wav,2,a,naming,97,wall,962,correct,NA,Apr 19 2023 22:47:22,Radhika,1
56411,56411_session2_lista_naming_trial098_tiger.wav,2,a,naming,98,tiger,928,correct,NA,Apr 19 2023 22:48:20,Radhika,1
56411,56411_session2_lista_naming_trial099_goat.wav,2,a,naming,99,goat,821,correct,NA,Apr 19 2023 22:48:50,Radhika,1
56411,56411_session2_lista_naming_trial100_tunnel.wav,2,a,naming,100,tunnel,1000,correct,NA,Apr 19 2023 22:49:13,Radhika,1
56411,56411_session2_lista_naming_trial101_soap.wav,2,a,naming,101,soap,2062,correct,NA,Apr 19 2023 22:49:47,Radhika,1
56411,56411_session2_lista_naming_trial102_butter.wav,2,a,naming,102,butter,1018,correct,NA,Apr 19 2023 22:50:39,Radhika,1
56411,56411_session2_lista_naming_trial103_gym.wav,2,a,naming,103,gym,1115,correct,NA,Apr 19 2023 22:51:40,Radhika,1
56411,56411_session2_lista_naming_trial104_flipper.wav,2,a,naming,104,flipper,965,correct,NA,Apr 19 2023 23:00:27,Radhika,1
56411,56411_session2_lista_naming_trial105_potato.wav,2,a,naming,105,potato,1007,correct,NA,Apr 19 2023 23:00:54,Radhika,1
56411,56411_session2_lista_naming_trial106_dice.wav,2,a,naming,106,dice,1202,correct,NA,Apr 19 2023 23:01:27,Radhika,1
56411,56411_session2_lista_naming_trial107_fox.wav,2,a,naming,107,fox,838,correct,NA,Apr 19 2023 23:02:05,Radhika,1
56411,56411_session2_lista_naming_trial108_windmill.wav,2,a,naming,108,windmill,889,correct,NA,Apr 19 2023 23:02:19,Radhika,1
56411,56411_session2_lista_naming_trial109_orange.wav,2,a,naming,109,orange,855,correct,NA,Apr 19 2023 23:07:46,Radhika,1
56411,56411_session2_lista_naming_trial110_train.wav,2,a,naming,110,train,1322,correct,NA,Apr 19 2023 23:08:18,Radhika,1
56411,56411_session2_lista_naming_trial111_mermaid.wav,2,a,naming,111,mermaid,919,correct,NA,Apr 19 2023 23:28:01,Radhika,1
56411,56411_session2_lista_naming_trial112_cherry.wav,2,a,naming,112,cherry,860,correct,NA,Apr 19 2023 23:28:26,Radhika,1
56411,56411_session2_lista_naming_trial113_flower.wav,2,a,naming,113,flower,729,correct,NA,Apr 19 2023 23:28:45,Radhika,1
56411,56411_session2_lista_naming_trial114_puppet.wav,2,a,naming,114,puppet,1478,correct,NA,Apr 19 2023 23:29:10,Radhika,1
56411,56411_session2_lista_naming_trial115_teacher.wav,2,a,naming,115,teacher,1076,correct,NA,Apr 19 2023 23:29:53,Radhika,1
56411,56411_session2_lista_naming_trial116_net.wav,2,a,naming,116,net,745,correct,NA,Apr 19 2023 23:30:09,Radhika,1
56411,56411_session2_lista_naming_trial117_battery.wav,2,a,naming,117,battery,845,correct,NA,Apr 19 2023 23:30:24,Radhika,1
56411,56411_session2_lista_naming_trial118_circle.wav,2,a,naming,118,circle,2757,correct,NA,Apr 19 2023 23:30:59,Radhika,1
56411,56411_session2_lista_naming_trial119_shield.wav,2,a,naming,119,shield,1480,correct,NA,Apr 19 2023 23:31:16,Radhika,1
56411,56411_session2_lista_naming_trial120_bone.wav,2,a,naming,120,bone,810,correct,NA,Apr 19 2023 23:31:37,Radhika,1
56411,56411_session2_lista_naming_trial121_tambourine.wav,2,a,naming,121,tambourine,872,correct,NA,Apr 19 2023 23:32:02,Radhika,1
56411,56411_session2_lista_naming_trial122_fork.wav,2,a,naming,122,fork,816,correct,NA,Apr 19 2023 23:32:40,Radhika,1
56411,56411_session2_lista_naming_trial123_curtain.wav,2,a,naming,123,curtain,858,correct,NA,Apr 19 2023 23:33:06,Radhika,1
56411,56411_session2_lista_naming_trial124_sausage.wav,2,a,naming,124,sausage,951,correct,NA,Apr 19 2023 23:33:23,Radhika,1
56411,56411_session2_lista_naming_trial125_swan.wav,2,a,naming,125,swan,859,correct,NA,Apr 19 2023 23:33:54,Radhika,1
56411,56411_session2_lista_naming_trial126_apple.wav,2,a,naming,126,apple,1028,correct,NA,Apr 19 2023 23:34:48,Radhika,1
56411,56411_session2_lista_naming_trial127_ear.wav,2,a,naming,127,ear,1069,correct,NA,Apr 19 2023 23:35:19,Radhika,1
56411,56411_session2_lista_naming_trial128_tie.wav,2,a,naming,128,tie,1151,correct,NA,Apr 19 2023 23:35:44,Radhika,1
56411,56411_session2_lista_naming_trial129_submarine.wav,2,a,naming,129,submarine,1391,correct,NA,Apr 19 2023 23:36:21,Radhika,1
56411,56411_session2_lista_naming_trial130_pipe.wav,2,a,naming,130,pipe,882,correct,NA,Apr 19 2023 23:36:41,Radhika,1
56411,56411_session2_lista_naming_trial131_drawer.wav,2,a,naming,131,drawer,915,correct,NA,Apr 19 2023 23:37:06,Radhika,1
56411,56411_session2_lista_naming_trial132_owl.wav,2,a,naming,132,owl,938,correct,NA,Apr 19 2023 23:37:36,Radhika,1
56411,56411_session2_lista_naming_trial133_pocket.wav,2,a,naming,133,pocket,1053,correct,NA,Apr 19 2023 23:38:42,Radhika,1
56411,56411_session2_lista_naming_trial134_snake.wav,2,a,naming,134,snake,1031,correct,NA,Apr 19 2023 23:39:03,Radhika,1
56411,56411_session2_lista_naming_trial135_computer.wav,2,a,naming,135,computer,762,correct,NA,Apr 19 2023 23:39:30,Radhika,1
56411,56411_session2_lista_naming_trial136_zip.wav,2,a,naming,136,zip,799,correct,NA,Apr 19 2023 23:40:02,Radhika,1
56411,56411_session2_lista_naming_trial137_dress.wav,2,a,naming,137,dress,815,correct,NA,Apr 19 2023 23:40:49,Radhika,1
56411,56411_session2_lista_naming_trial138_pencil.wav,2,a,naming,138,pencil,710,correct,NA,Apr 19 2023 23:41:13,Radhika,1
56411,56411_session2_lista_naming_trial139_elbow.wav,2,a,naming,139,elbow,959,correct,NA,Apr 19 2023 23:41:33,Radhika,1
56411,56411_session2_lista_naming_trial140_tap.wav,2,a,naming,140,tap,916,correct,NA,Apr 19 2023 23:42:14,Radhika,1
56411,56411_session2_lista_naming_trial141_kiwi.wav,2,a,naming,141,kiwi,969,correct,NA,Apr 19 2023 23:42:38,Radhika,1
56411,56411_session2_lista_naming_trial142_lamp.wav,2,a,naming,142,lamp,824,correct,NA,Apr 19 2023 23:42:58,Radhika,1
56411,56411_session2_lista_naming_trial143_tongue.wav,2,a,naming,143,tongue,891,correct,NA,Apr 19 2023 23:43:38,Radhika,1
56411,56411_session2_lista_naming_trial144_jellyfish.wav,2,a,naming,144,jellyfish,1193,correct,NA,Apr 19 2023 23:44:37,Radhika,1
56411,56411_session2_lista_naming_trial145_caterpillar.wav,2,a,naming,145,caterpillar,810,correct,NA,Apr 19 2023 23:44:59,Radhika,1
56411,56411_session2_lista_naming_trial146_saw.wav,2,a,naming,146,saw,814,correct,NA,Apr 19 2023 23:45:23,Radhika,1
56411,56411_session2_lista_naming_trial147_tractor.wav,2,a,naming,147,tractor,968,correct,NA,Apr 19 2023 23:45:46,Radhika,1
56411,56411_session2_lista_naming_trial148_skirt.wav,2,a,naming,148,skirt,921,correct,NA,Apr 19 2023 23:46:18,Radhika,1
56411,56411_session2_lista_naming_trial149_judge.wav,2,a,naming,149,judge,1059,correct,NA,Apr 19 2023 23:46:47,Radhika,1
56411,56411_session2_lista_naming_trial150_wheelbarrow.wav,2,a,naming,150,wheelbarrow,843,correct,NA,Apr 19 2023 23:47:03,Radhika,1
