Participant_ID,File_Name,Session,List,Type_Trial,Trial_Nbr,Target,RT,Response_Trial,Comment,Date_Correction,Assessor_Name,Processed
5f262,5f262_session2_lista_naming_trial001_koala.wav,2,a,naming,1,koala,1170,correct,NA,Apr 17 2023 17:28:08,Agnieszka,1
5f262,5f262_session2_lista_naming_trial002_book.wav,2,a,naming,2,book,880,correct,NA,Apr 17 2023 17:28:15,Agnieszka,1
5f262,5f262_session2_lista_naming_trial003_squirrel.wav,2,a,naming,3,squirrel,782,correct,NA,Apr 17 2023 17:28:23,Agnieszka,1
5f262,5f262_session2_lista_naming_trial004_elbow.wav,2,a,naming,4,elbow,989,correct,NA,Apr 17 2023 17:28:33,Agnieszka,1
5f262,5f262_session2_lista_naming_trial005_hippo.wav,2,a,naming,5,hippo,1740,correct,NA,Apr 17 2023 17:28:40,Agnieszka,1
5f262,5f262_session2_lista_naming_trial006_tree.wav,2,a,naming,6,tree,864,correct,NA,Apr 17 2023 17:28:50,Agnieszka,1
5f262,5f262_session2_lista_naming_trial007_pepper.wav,2,a,naming,7,pepper,791,correct,NA,Apr 17 2023 17:29:05,Agnieszka,1
5f262,5f262_session2_lista_naming_trial008_fork.wav,2,a,naming,8,fork,638,correct,NA,Apr 17 2023 17:29:12,Agnieszka,1
5f262,5f262_session2_lista_naming_trial009_island.wav,2,a,naming,9,island,947,correct,NA,Apr 17 2023 17:29:19,Agnieszka,1
5f262,5f262_session2_lista_naming_trial010_queen.wav,2,a,naming,10,queen,1008,correct,NA,Apr 17 2023 17:29:26,Agnieszka,1
5f262,5f262_session2_lista_naming_trial011_whale.wav,2,a,naming,11,whale,-1,wrong_word,NA,Apr 17 2023 17:29:32,Agnieszka,1
5f262,5f262_session2_lista_naming_trial012_suitcase.wav,2,a,naming,12,suitcase,705,correct,NA,Apr 17 2023 17:29:43,Agnieszka,1
5f262,5f262_session2_lista_naming_trial013_tambourine.wav,2,a,naming,13,tambourine,1084,correct,NA,Apr 17 2023 17:29:50,Agnieszka,1
5f262,5f262_session2_lista_naming_trial014_bib.wav,2,a,naming,14,bib,887,correct,NA,Apr 17 2023 17:30:00,Agnieszka,1
5f262,5f262_session2_lista_naming_trial015_tie.wav,2,a,naming,15,tie,747,correct,NA,Apr 17 2023 17:30:07,Agnieszka,1
5f262,5f262_session2_lista_naming_trial016_tractor.wav,2,a,naming,16,tractor,699,correct,NA,Apr 17 2023 17:30:14,Agnieszka,1
5f262,5f262_session2_lista_naming_trial017_drum.wav,2,a,naming,17,drum,1097,correct,NA,Apr 17 2023 17:30:23,Agnieszka,1
5f262,5f262_session2_lista_naming_trial018_lung.wav,2,a,naming,18,lung,893,correct,NA,Apr 17 2023 17:30:31,Agnieszka,1
5f262,5f262_session2_lista_naming_trial019_nest.wav,2,a,naming,19,nest,1597,correct,NA,Apr 17 2023 17:31:12,Agnieszka,1
5f262,5f262_session2_lista_naming_trial020_pencil.wav,2,a,naming,20,pencil,1288,correct,NA,Apr 17 2023 17:31:22,Agnieszka,1
5f262,5f262_session2_lista_naming_trial021_sweet.wav,2,a,naming,21,sweet,721,correct,NA,Apr 17 2023 17:31:30,Agnieszka,1
5f262,5f262_session2_lista_naming_trial022_bench.wav,2,a,naming,22,bench,1027,correct,NA,Apr 17 2023 17:31:42,Agnieszka,1
5f262,5f262_session2_lista_naming_trial023_thumb.wav,2,a,naming,23,thumb,676,correct,NA,Apr 17 2023 17:32:22,Agnieszka,1
5f262,5f262_session2_lista_naming_trial024_boxer.wav,2,a,naming,24,boxer,753,correct,NA,Apr 17 2023 17:32:43,Agnieszka,1
5f262,5f262_session2_lista_naming_trial025_triangle.wav,2,a,naming,25,triangle,839,correct,NA,Apr 17 2023 17:32:54,Agnieszka,1
5f262,5f262_session2_lista_naming_trial026_heel.wav,2,a,naming,26,heel,-1,wrong_word,NA,Apr 17 2023 17:32:59,Agnieszka,1
5f262,5f262_session2_lista_naming_trial027_shield.wav,2,a,naming,27,shield,813,correct,NA,Apr 17 2023 17:33:06,Agnieszka,1
5f262,5f262_session2_lista_naming_trial028_wall.wav,2,a,naming,28,wall,1036,correct,NA,Apr 17 2023 17:33:12,Agnieszka,1
5f262,5f262_session2_lista_naming_trial029_lighthouse.wav,2,a,naming,29,lighthouse,813,correct,NA,Apr 17 2023 17:33:20,Agnieszka,1
5f262,5f262_session2_lista_naming_trial030_shower.wav,2,a,naming,30,shower,759,correct,NA,Apr 17 2023 17:33:26,Agnieszka,1
5f262,5f262_session2_lista_naming_trial031_glove.wav,2,a,naming,31,glove,715,correct,NA,Apr 17 2023 17:33:40,Agnieszka,1
5f262,5f262_session2_lista_naming_trial032_owl.wav,2,a,naming,32,owl,788,correct,NA,Apr 17 2023 17:33:47,Agnieszka,1
5f262,5f262_session2_lista_naming_trial033_pipe.wav,2,a,naming,33,pipe,759,correct,NA,Apr 17 2023 17:33:54,Agnieszka,1
5f262,5f262_session2_lista_naming_trial034_clown.wav,2,a,naming,34,clown,-1,disfluency,NA,Apr 17 2023 17:34:05,Agnieszka,1
5f262,5f262_session2_lista_naming_trial035_butterfly.wav,2,a,naming,35,butterfly,734,correct,NA,Apr 17 2023 17:34:15,Agnieszka,1
5f262,5f262_session2_lista_naming_trial036_tattoo.wav,2,a,naming,36,tattoo,1272,correct,NA,Apr 17 2023 17:34:21,Agnieszka,1
5f262,5f262_session2_lista_naming_trial037_orange.wav,2,a,naming,37,orange,1164,correct,NA,Apr 17 2023 17:34:30,Agnieszka,1
5f262,5f262_session2_lista_naming_trial038_hat.wav,2,a,naming,38,hat,925,correct,NA,Apr 17 2023 17:34:41,Agnieszka,1
5f262,5f262_session2_lista_naming_trial039_pear.wav,2,a,naming,39,pear,820,correct,NA,Apr 17 2023 17:34:48,Agnieszka,1
5f262,5f262_session2_lista_naming_trial040_caterpillar.wav,2,a,naming,40,caterpillar,845,correct,NA,Apr 17 2023 17:34:55,Agnieszka,1
5f262,5f262_session2_lista_naming_trial041_rocket.wav,2,a,naming,41,rocket,938,correct,NA,Apr 17 2023 17:35:08,Agnieszka,1
5f262,5f262_session2_lista_naming_trial042_fireplace.wav,2,a,naming,42,fireplace,995,correct,NA,Apr 17 2023 17:35:16,Agnieszka,1
5f262,5f262_session2_lista_naming_trial043_bear.wav,2,a,naming,43,bear,1202,correct,NA,Apr 17 2023 17:35:24,Agnieszka,1
5f262,5f262_session2_lista_naming_trial044_tiger.wav,2,a,naming,44,tiger,727,correct,NA,Apr 17 2023 17:35:32,Agnieszka,1
5f262,5f262_session2_lista_naming_trial045_peg.wav,2,a,naming,45,peg,836,correct,NA,Apr 17 2023 17:35:42,Agnieszka,1
5f262,5f262_session2_lista_naming_trial046_bus.wav,2,a,naming,46,bus,1227,correct,NA,Apr 17 2023 17:35:51,Agnieszka,1
5f262,5f262_session2_lista_naming_trial047_soap.wav,2,a,naming,47,soap,1011,correct,NA,Apr 17 2023 17:35:57,Agnieszka,1
5f262,5f262_session2_lista_naming_trial048_teacher.wav,2,a,naming,48,teacher,826,correct,NA,Apr 17 2023 17:36:07,Agnieszka,1
5f262,5f262_session2_lista_naming_trial049_judge.wav,2,a,naming,49,judge,1055,correct,NA,Apr 17 2023 17:36:14,Agnieszka,1
5f262,5f262_session2_lista_naming_trial050_doctor.wav,2,a,naming,50,doctor,944,correct,NA,Apr 17 2023 17:36:22,Agnieszka,1
5f262,5f262_session2_lista_naming_trial051_robot.wav,2,a,naming,51,robot,934,correct,NA,Apr 17 2023 17:36:30,Agnieszka,1
5f262,5f262_session2_lista_naming_trial052_cork.wav,2,a,naming,52,cork,868,correct,NA,Apr 17 2023 17:36:39,Agnieszka,1
5f262,5f262_session2_lista_naming_trial053_curtain.wav,2,a,naming,53,curtain,909,correct,NA,Apr 17 2023 17:36:45,Agnieszka,1
5f262,5f262_session2_lista_naming_trial054_lighter.wav,2,a,naming,54,lighter,1196,correct,NA,Apr 17 2023 17:36:55,Agnieszka,1
5f262,5f262_session2_lista_naming_trial055_lamp.wav,2,a,naming,55,lamp,1046,correct,NA,Apr 17 2023 17:37:09,Agnieszka,1
5f262,5f262_session2_lista_naming_trial056_snake.wav,2,a,naming,56,snake,1154,correct,NA,Apr 17 2023 17:37:16,Agnieszka,1
5f262,5f262_session2_lista_naming_trial057_windmill.wav,2,a,naming,57,windmill,775,correct,NA,Apr 17 2023 17:37:25,Agnieszka,1
5f262,5f262_session2_lista_naming_trial058_puppet.wav,2,a,naming,58,puppet,1097,correct,NA,Apr 17 2023 17:37:32,Agnieszka,1
5f262,5f262_session2_lista_naming_trial059_rhino.wav,2,a,naming,59,rhino,-1,wrong_word,NA,Apr 17 2023 17:37:38,Agnieszka,1
5f262,5f262_session2_lista_naming_trial060_plumber.wav,2,a,naming,60,plumber,-1,wrong_word,NA,Apr 17 2023 17:37:46,Agnieszka,1
5f262,5f262_session2_lista_naming_trial061_mouth.wav,2,a,naming,61,mouth,-1,uncertain,starts with 'builder',Apr 17 2023 17:38:07,Agnieszka,1
5f262,5f262_session2_lista_naming_trial062_flipper.wav,2,a,naming,62,flipper,989,correct,NA,Apr 17 2023 17:38:14,Agnieszka,1
5f262,5f262_session2_lista_naming_trial063_zip.wav,2,a,naming,63,zip,772,correct,NA,Apr 17 2023 17:38:21,Agnieszka,1
5f262,5f262_session2_lista_naming_trial064_bracelet.wav,2,a,naming,64,bracelet,1004,correct,NA,Apr 17 2023 17:38:28,Agnieszka,1
5f262,5f262_session2_lista_naming_trial065_rose.wav,2,a,naming,65,rose,762,correct,NA,Apr 17 2023 17:38:37,Agnieszka,1
5f262,5f262_session2_lista_naming_trial066_zebra.wav,2,a,naming,66,zebra,848,correct,NA,Apr 17 2023 17:38:46,Agnieszka,1
5f262,5f262_session2_lista_naming_trial067_wheelbarrow.wav,2,a,naming,67,wheelbarrow,1208,correct,NA,Apr 17 2023 17:38:57,Agnieszka,1
5f262,5f262_session2_lista_naming_trial068_carrot.wav,2,a,naming,68,carrot,874,correct,NA,Apr 17 2023 17:39:04,Agnieszka,1
5f262,5f262_session2_lista_naming_trial069_bull.wav,2,a,naming,69,bull,1473,correct,NA,Apr 17 2023 17:39:14,Agnieszka,1
5f262,5f262_session2_lista_naming_trial070_flag.wav,2,a,naming,70,flag,1399,correct,NA,Apr 17 2023 17:39:20,Agnieszka,1
5f262,5f262_session2_lista_naming_trial071_kangaroo.wav,2,a,naming,71,kangaroo,890,correct,NA,Apr 17 2023 17:39:26,Agnieszka,1
5f262,5f262_session2_lista_naming_trial072_avocado.wav,2,a,naming,72,avocado,762,correct,NA,Apr 17 2023 17:39:36,Agnieszka,1
5f262,5f262_session2_lista_naming_trial073_jellyfish.wav,2,a,naming,73,jellyfish,918,correct,NA,Apr 17 2023 17:39:44,Agnieszka,1
5f262,5f262_session2_lista_naming_trial074_wave.wav,2,a,naming,74,wave,-1,wrong_word,NA,Apr 17 2023 17:39:51,Agnieszka,1
5f262,5f262_session2_lista_naming_trial075_bullet.wav,2,a,naming,75,bullet,912,correct,NA,Apr 17 2023 17:39:59,Agnieszka,1
5f262,5f262_session2_lista_naming_trial076_scissors.wav,2,a,naming,76,scissors,1132,correct,NA,Apr 17 2023 17:40:06,Agnieszka,1
5f262,5f262_session2_lista_naming_trial077_potato.wav,2,a,naming,77,potato,899,correct,NA,Apr 17 2023 17:40:16,Agnieszka,1
5f262,5f262_session2_lista_naming_trial078_donkey.wav,2,a,naming,78,donkey,-1,wrong_word,NA,Apr 17 2023 17:40:21,Agnieszka,1
5f262,5f262_session2_lista_naming_trial079_tomato.wav,2,a,naming,79,tomato,1014,correct,NA,Apr 17 2023 17:40:28,Agnieszka,1
5f262,5f262_session2_lista_naming_trial080_star.wav,2,a,naming,80,star,692,correct,NA,Apr 17 2023 17:40:35,Agnieszka,1
5f262,5f262_session2_lista_naming_trial081_drawer.wav,2,a,naming,81,drawer,852,correct,NA,Apr 17 2023 17:40:43,Agnieszka,1
5f262,5f262_session2_lista_naming_trial082_kiwi.wav,2,a,naming,82,kiwi,1380,correct,NA,Apr 17 2023 17:40:51,Agnieszka,1
5f262,5f262_session2_lista_naming_trial083_doughnut.wav,2,a,naming,83,doughnut,832,correct,NA,Apr 17 2023 17:40:57,Agnieszka,1
5f262,5f262_session2_lista_naming_trial084_ear.wav,2,a,naming,84,ear,807,correct,NA,Apr 17 2023 17:41:05,Agnieszka,1
5f262,5f262_session2_lista_naming_trial085_butter.wav,2,a,naming,85,butter,925,correct,NA,Apr 17 2023 17:41:13,Agnieszka,1
5f262,5f262_session2_lista_naming_trial086_ruler.wav,2,a,naming,86,ruler,941,correct,NA,Apr 17 2023 17:41:21,Agnieszka,1
5f262,5f262_session2_lista_naming_trial087_beak.wav,2,a,naming,87,beak,1097,correct,NA,Apr 17 2023 17:41:31,Agnieszka,1
5f262,5f262_session2_lista_naming_trial088_comb.wav,2,a,naming,88,comb,731,correct,NA,Apr 17 2023 17:42:53,Agnieszka,1
5f262,5f262_session2_lista_naming_trial089_battery.wav,2,a,naming,89,battery,868,correct,NA,Apr 17 2023 17:42:59,Agnieszka,1
5f262,5f262_session2_lista_naming_trial090_kitchen.wav,2,a,naming,90,kitchen,1297,correct,NA,Apr 17 2023 17:43:09,Agnieszka,1
5f262,5f262_session2_lista_naming_trial091_lawnmower.wav,2,a,naming,91,lawnmower,1020,correct,NA,Apr 17 2023 17:43:24,Agnieszka,1
5f262,5f262_session2_lista_naming_trial092_flower.wav,2,a,naming,92,flower,852,correct,NA,Apr 17 2023 17:43:31,Agnieszka,1
5f262,5f262_session2_lista_naming_trial093_bike.wav,2,a,naming,93,bike,791,correct,NA,Apr 17 2023 17:43:46,Agnieszka,1
5f262,5f262_session2_lista_naming_trial094_computer.wav,2,a,naming,94,computer,912,correct,NA,Apr 17 2023 17:44:21,Agnieszka,1
5f262,5f262_session2_lista_naming_trial095_mountain.wav,2,a,naming,95,mountain,985,correct,NA,Apr 17 2023 17:44:32,Agnieszka,1
5f262,5f262_session2_lista_naming_trial096_sword.wav,2,a,naming,96,sword,966,correct,NA,Apr 17 2023 17:44:39,Agnieszka,1
5f262,5f262_session2_lista_naming_trial097_map.wav,2,a,naming,97,map,1027,correct,NA,Apr 17 2023 17:44:50,Agnieszka,1
5f262,5f262_session2_lista_naming_trial098_tap.wav,2,a,naming,98,tap,836,correct,NA,Apr 17 2023 17:44:59,Agnieszka,1
5f262,5f262_session2_lista_naming_trial099_helicopter.wav,2,a,naming,99,helicopter,1017,correct,NA,Apr 17 2023 17:45:06,Agnieszka,1
5f262,5f262_session2_lista_naming_trial100_magnet.wav,2,a,naming,100,magnet,890,correct,NA,Apr 17 2023 17:45:13,Agnieszka,1
5f262,5f262_session2_lista_naming_trial101_fence.wav,2,a,naming,101,fence,880,correct,NA,Apr 17 2023 17:45:44,Agnieszka,1
5f262,5f262_session2_lista_naming_trial102_pocket.wav,2,a,naming,102,pocket,1447,correct,NA,Apr 17 2023 17:45:51,Agnieszka,1
5f262,5f262_session2_lista_naming_trial103_camel.wav,2,a,naming,103,camel,947,correct,NA,Apr 17 2023 17:45:58,Agnieszka,1
5f262,5f262_session2_lista_naming_trial104_bell.wav,2,a,naming,104,bell,979,correct,NA,Apr 17 2023 17:46:07,Agnieszka,1
5f262,5f262_session2_lista_naming_trial105_mermaid.wav,2,a,naming,105,mermaid,912,correct,NA,Apr 17 2023 17:46:15,Agnieszka,1
5f262,5f262_session2_lista_naming_trial106_ghost.wav,2,a,naming,106,ghost,925,correct,NA,Apr 17 2023 17:47:55,Agnieszka,1
5f262,5f262_session2_lista_naming_trial107_kite.wav,2,a,naming,107,kite,1552,correct,NA,Apr 17 2023 17:48:02,Agnieszka,1
5f262,5f262_session2_lista_naming_trial108_skirt.wav,2,a,naming,108,skirt,1419,correct,NA,Apr 17 2023 17:48:08,Agnieszka,1
5f262,5f262_session2_lista_naming_trial109_tongue.wav,2,a,naming,109,tongue,1122,correct,NA,Apr 17 2023 17:55:09,Agnieszka,1
5f262,5f262_session2_lista_naming_trial110_sausage.wav,2,a,naming,110,sausage,1094,correct,NA,Apr 17 2023 17:55:17,Agnieszka,1
5f262,5f262_session2_lista_naming_trial111_pineapple.wav,2,a,naming,111,pineapple,915,correct,NA,Apr 17 2023 17:55:29,Agnieszka,1
5f262,5f262_session2_lista_naming_trial112_fridge.wav,2,a,naming,112,fridge,918,correct,NA,Apr 17 2023 17:55:35,Agnieszka,1
5f262,5f262_session2_lista_naming_trial113_rabbit.wav,2,a,naming,113,rabbit,778,correct,NA,Apr 17 2023 17:55:44,Agnieszka,1
5f262,5f262_session2_lista_naming_trial114_crab.wav,2,a,naming,114,crab,1377,correct,NA,Apr 17 2023 17:55:52,Agnieszka,1
5f262,5f262_session2_lista_naming_trial115_arm.wav,2,a,naming,115,arm,896,correct,NA,Apr 17 2023 17:55:58,Agnieszka,1
5f262,5f262_session2_lista_naming_trial116_gym.wav,2,a,naming,116,gym,1176,correct,NA,Apr 17 2023 17:56:04,Agnieszka,1
5f262,5f262_session2_lista_naming_trial117_sun.wav,2,a,naming,117,sun,1189,correct,NA,Apr 17 2023 17:56:11,Agnieszka,1
5f262,5f262_session2_lista_naming_trial118_dress.wav,2,a,naming,118,dress,1750,correct,NA,Apr 17 2023 17:56:17,Agnieszka,1
5f262,5f262_session2_lista_naming_trial119_dummy.wav,2,a,naming,119,dummy,1804,correct,NA,Apr 17 2023 17:56:30,Agnieszka,1
5f262,5f262_session2_lista_naming_trial120_fox.wav,2,a,naming,120,fox,1253,correct,NA,Apr 17 2023 17:56:50,Agnieszka,1
5f262,5f262_session2_lista_naming_trial121_circle.wav,2,a,naming,121,circle,740,correct,NA,Apr 17 2023 17:56:57,Agnieszka,1
5f262,5f262_session2_lista_naming_trial122_basket.wav,2,a,naming,122,basket,762,correct,NA,Apr 17 2023 17:57:04,Agnieszka,1
5f262,5f262_session2_lista_naming_trial123_suit.wav,2,a,naming,123,suit,657,correct,NA,Apr 17 2023 17:57:11,Agnieszka,1
5f262,5f262_session2_lista_naming_trial124_net.wav,2,a,naming,124,net,801,correct,NA,Apr 17 2023 17:57:18,Agnieszka,1
5f262,5f262_session2_lista_naming_trial125_dice.wav,2,a,naming,125,dice,791,correct,NA,Apr 17 2023 17:57:26,Agnieszka,1
5f262,5f262_session2_lista_naming_trial126_compass.wav,2,a,naming,126,compass,1084,correct,NA,Apr 17 2023 17:57:36,Agnieszka,1
5f262,5f262_session2_lista_naming_trial127_candle.wav,2,a,naming,127,candle,1078,correct,NA,Apr 17 2023 17:57:44,Agnieszka,1
5f262,5f262_session2_lista_naming_trial128_coat.wav,2,a,naming,128,coat,1221,correct,NA,Apr 17 2023 17:57:51,Agnieszka,1
5f262,5f262_session2_lista_naming_trial129_tray.wav,2,a,naming,129,tray,832,correct,NA,Apr 17 2023 17:58:02,Agnieszka,1
5f262,5f262_session2_lista_naming_trial130_cherry.wav,2,a,naming,130,cherry,804,correct,NA,Apr 17 2023 17:58:09,Agnieszka,1
5f262,5f262_session2_lista_naming_trial131_swan.wav,2,a,naming,131,swan,711,correct,NA,Apr 17 2023 17:58:15,Agnieszka,1
5f262,5f262_session2_lista_naming_trial132_saw.wav,2,a,naming,132,saw,-1,wrong_word,NA,Apr 17 2023 17:58:22,Agnieszka,1
5f262,5f262_session2_lista_naming_trial133_train.wav,2,a,naming,133,train,1530,correct,NA,Apr 17 2023 17:58:27,Agnieszka,1
5f262,5f262_session2_lista_naming_trial134_wing.wav,2,a,naming,134,wing,1221,correct,NA,Apr 17 2023 17:58:35,Agnieszka,1
5f262,5f262_session2_lista_naming_trial135_tunnel.wav,2,a,naming,135,tunnel,1046,correct,NA,Apr 17 2023 17:58:44,Agnieszka,1
5f262,5f262_session2_lista_naming_trial136_arrow.wav,2,a,naming,136,arrow,1247,correct,NA,Apr 17 2023 17:58:57,Agnieszka,1
5f262,5f262_session2_lista_naming_trial137_bottle.wav,2,a,naming,137,bottle,1234,correct,NA,Apr 17 2023 17:59:06,Agnieszka,1
5f262,5f262_session2_lista_naming_trial138_shoe.wav,2,a,naming,138,shoe,721,correct,NA,Apr 17 2023 17:59:13,Agnieszka,1
5f262,5f262_session2_lista_naming_trial139_olive.wav,2,a,naming,139,olive,1040,correct,NA,Apr 17 2023 17:59:20,Agnieszka,1
5f262,5f262_session2_lista_naming_trial140_apple.wav,2,a,naming,140,apple,1017,correct,NA,Apr 17 2023 17:59:30,Agnieszka,1
5f262,5f262_session2_lista_naming_trial141_fairy.wav,2,a,naming,141,fairy,989,correct,NA,Apr 17 2023 17:59:38,Agnieszka,1
5f262,5f262_session2_lista_naming_trial142_onion.wav,2,a,naming,142,onion,893,correct,NA,Apr 17 2023 17:59:45,Agnieszka,1
5f262,5f262_session2_lista_naming_trial143_medal.wav,2,a,naming,143,medal,826,correct,NA,Apr 17 2023 17:59:53,Agnieszka,1
5f262,5f262_session2_lista_naming_trial144_goat.wav,2,a,naming,144,goat,1071,correct,NA,Apr 17 2023 18:00:19,Agnieszka,1
5f262,5f262_session2_lista_naming_trial145_limo.wav,2,a,naming,145,limo,982,correct,NA,Apr 17 2023 18:00:26,Agnieszka,1
5f262,5f262_session2_lista_naming_trial146_bone.wav,2,a,naming,146,bone,1247,correct,NA,Apr 17 2023 18:00:32,Agnieszka,1
5f262,5f262_session2_lista_naming_trial147_key.wav,2,a,naming,147,key,1129,correct,NA,Apr 17 2023 18:00:39,Agnieszka,1
5f262,5f262_session2_lista_naming_trial148_knife.wav,2,a,naming,148,knife,759,correct,NA,Apr 17 2023 18:00:46,Agnieszka,1
5f262,5f262_session2_lista_naming_trial149_castle.wav,2,a,naming,149,castle,1517,correct,NA,Apr 17 2023 18:00:53,Agnieszka,1
5f262,5f262_session2_lista_naming_trial150_submarine.wav,2,a,naming,150,submarine,-1,wrong_word,NA,Apr 17 2023 18:00:59,Agnieszka,1
