Participant_ID,File_Name,Session,List,Type_Trial,Trial_Nbr,Target,RT,Response_Trial,Comment,Date_Correction,Assessor_Name,Processed
5ea4c,5ea4c_session2_lista_naming_trial001_peg.wav,2,a,naming,1,peg,1508,correct,NA,Apr 20 2023 18:12:54,Friederike,1
5ea4c,5ea4c_session2_lista_naming_trial002_tie.wav,2,a,naming,2,tie,776,correct,NA,Apr 20 2023 18:13:28,Friederike,1
5ea4c,5ea4c_session2_lista_naming_trial003_mermaid.wav,2,a,naming,3,mermaid,1034,correct,NA,Apr 20 2023 18:14:17,Friederike,1
5ea4c,5ea4c_session2_lista_naming_trial004_rose.wav,2,a,naming,4,rose,831,correct,NA,Apr 20 2023 18:14:50,Friederike,1
5ea4c,5ea4c_session2_lista_naming_trial005_castle.wav,2,a,naming,5,castle,907,correct,NA,Apr 20 2023 18:15:20,Friederike,1
5ea4c,5ea4c_session2_lista_naming_trial006_fireplace.wav,2,a,naming,6,fireplace,1172,correct,NA,Apr 20 2023 18:15:52,Friederike,1
5ea4c,5ea4c_session2_lista_naming_trial007_battery.wav,2,a,naming,7,battery,915,correct,NA,Apr 20 2023 18:16:39,Friederike,1
5ea4c,5ea4c_session2_lista_naming_trial008_sausage.wav,2,a,naming,8,sausage,-1,disfluency,NA,Apr 20 2023 18:17:14,Friederike,1
5ea4c,5ea4c_session2_lista_naming_trial009_zebra.wav,2,a,naming,9,zebra,912,correct,NA,Apr 20 2023 18:17:41,Friederike,1
5ea4c,5ea4c_session2_lista_naming_trial010_drawer.wav,2,a,naming,10,drawer,931,correct,NA,Apr 20 2023 18:18:07,Friederike,1
5ea4c,5ea4c_session2_lista_naming_trial011_camel.wav,2,a,naming,11,camel,809,correct,NA,Apr 20 2023 18:18:37,Friederike,1
5ea4c,5ea4c_session2_lista_naming_trial012_scissors.wav,2,a,naming,12,scissors,700,correct,NA,Apr 20 2023 18:19:12,Friederike,1
5ea4c,5ea4c_session2_lista_naming_trial013_limo.wav,2,a,naming,13,limo,799,correct,NA,Apr 22 2023 10:42:39,Friederike,1
5ea4c,5ea4c_session2_lista_naming_trial014_doughnut.wav,2,a,naming,14,doughnut,915,correct,NA,Apr 22 2023 10:43:22,Friederike,1
5ea4c,5ea4c_session2_lista_naming_trial015_circle.wav,2,a,naming,15,circle,1115,correct,NA,Apr 22 2023 10:44:38,Friederike,1
5ea4c,5ea4c_session2_lista_naming_trial016_pepper.wav,2,a,naming,16,pepper,757,correct,NA,Apr 22 2023 10:51:26,Friederike,1
5ea4c,5ea4c_session2_lista_naming_trial017_helicopter.wav,2,a,naming,17,helicopter,810,correct,NA,Apr 22 2023 10:53:04,Friederike,1
5ea4c,5ea4c_session2_lista_naming_trial018_jellyfish.wav,2,a,naming,18,jellyfish,819,correct,NA,Apr 22 2023 10:54:39,Friederike,1
5ea4c,5ea4c_session2_lista_naming_trial019_tattoo.wav,2,a,naming,19,tattoo,1029,correct,NA,Apr 22 2023 10:55:06,Friederike,1
5ea4c,5ea4c_session2_lista_naming_trial020_magnet.wav,2,a,naming,20,magnet,1252,correct,NA,Apr 22 2023 10:55:36,Friederike,1
5ea4c,5ea4c_session2_lista_naming_trial021_bone.wav,2,a,naming,21,bone,852,correct,NA,Apr 22 2023 10:56:24,Friederike,1
5ea4c,5ea4c_session2_lista_naming_trial022_flipper.wav,2,a,naming,22,flipper,1165,correct,NA,Apr 22 2023 10:57:05,Friederike,1
5ea4c,5ea4c_session2_lista_naming_trial023_bottle.wav,2,a,naming,23,bottle,853,correct,NA,Apr 22 2023 10:57:32,Friederike,1
5ea4c,5ea4c_session2_lista_naming_trial024_skirt.wav,2,a,naming,24,skirt,899,correct,NA,Apr 22 2023 11:02:37,Friederike,1
5ea4c,5ea4c_session2_lista_naming_trial025_train.wav,2,a,naming,25,train,958,correct,NA,Apr 22 2023 11:03:05,Friederike,1
5ea4c,5ea4c_session2_lista_naming_trial026_suitcase.wav,2,a,naming,26,suitcase,792,correct,NA,Apr 22 2023 11:03:43,Friederike,1
5ea4c,5ea4c_session2_lista_naming_trial027_coat.wav,2,a,naming,27,coat,861,correct,NA,Apr 22 2023 11:04:15,Friederike,1
5ea4c,5ea4c_session2_lista_naming_trial028_flower.wav,2,a,naming,28,flower,747,correct,NA,Apr 22 2023 11:04:58,Friederike,1
5ea4c,5ea4c_session2_lista_naming_trial029_windmill.wav,2,a,naming,29,windmill,-1,wrong_word,NA,Apr 22 2023 11:05:11,Friederike,1
5ea4c,5ea4c_session2_lista_naming_trial030_shower.wav,2,a,naming,30,shower,1004,correct,NA,Apr 22 2023 11:05:37,Friederike,1
5ea4c,5ea4c_session2_lista_naming_trial031_island.wav,2,a,naming,31,island,1078,correct,NA,Apr 22 2023 11:06:07,Friederike,1
5ea4c,5ea4c_session2_lista_naming_trial032_basket.wav,2,a,naming,32,basket,-1,wrong_word,NA,Apr 22 2023 11:06:53,Friederike,1
5ea4c,5ea4c_session2_lista_naming_trial033_suit.wav,2,a,naming,33,suit,815,correct,NA,Apr 22 2023 11:07:23,Friederike,1
5ea4c,5ea4c_session2_lista_naming_trial034_rabbit.wav,2,a,naming,34,rabbit,937,correct,NA,Apr 22 2023 11:07:50,Friederike,1
5ea4c,5ea4c_session2_lista_naming_trial035_goat.wav,2,a,naming,35,goat,902,correct,NA,Apr 22 2023 11:08:21,Friederike,1
5ea4c,5ea4c_session2_lista_naming_trial036_sword.wav,2,a,naming,36,sword,2075,correct,NA,Apr 22 2023 11:09:09,Friederike,1
5ea4c,5ea4c_session2_lista_naming_trial037_tap.wav,2,a,naming,37,tap,927,correct,NA,Apr 22 2023 11:09:43,Friederike,1
5ea4c,5ea4c_session2_lista_naming_trial038_tambourine.wav,2,a,naming,38,tambourine,800,correct,NA,Apr 22 2023 11:10:27,Friederike,1
5ea4c,5ea4c_session2_lista_naming_trial039_thumb.wav,2,a,naming,39,thumb,889,correct,NA,Apr 22 2023 11:11:22,Friederike,1
5ea4c,5ea4c_session2_lista_naming_trial040_lighthouse.wav,2,a,naming,40,lighthouse,999,correct,NA,Apr 22 2023 11:11:58,Friederike,1
5ea4c,5ea4c_session2_lista_naming_trial041_star.wav,2,a,naming,41,star,724,correct,NA,Apr 22 2023 11:13:53,Friederike,1
5ea4c,5ea4c_session2_lista_naming_trial042_tiger.wav,2,a,naming,42,tiger,748,correct,NA,Apr 22 2023 11:19:37,Friederike,1
5ea4c,5ea4c_session2_lista_naming_trial043_key.wav,2,a,naming,43,key,775,correct,NA,Apr 22 2023 11:20:05,Friederike,1
5ea4c,5ea4c_session2_lista_naming_trial044_butterfly.wav,2,a,naming,44,butterfly,792,correct,NA,Apr 22 2023 11:20:33,Friederike,1
5ea4c,5ea4c_session2_lista_naming_trial045_dice.wav,2,a,naming,45,dice,770,correct,NA,Apr 22 2023 11:21:06,Friederike,1
5ea4c,5ea4c_session2_lista_naming_trial046_whale.wav,2,a,naming,46,whale,925,correct,NA,Apr 22 2023 11:21:41,Friederike,1
5ea4c,5ea4c_session2_lista_naming_trial047_queen.wav,2,a,naming,47,queen,1017,correct,NA,Apr 22 2023 11:22:20,Friederike,1
5ea4c,5ea4c_session2_lista_naming_trial048_butter.wav,2,a,naming,48,butter,1100,correct,NA,Apr 22 2023 11:22:46,Friederike,1
5ea4c,5ea4c_session2_lista_naming_trial049_compass.wav,2,a,naming,49,compass,1049,correct,NA,Apr 22 2023 11:23:25,Friederike,1
5ea4c,5ea4c_session2_lista_naming_trial050_squirrel.wav,2,a,naming,50,squirrel,841,correct,NA,Apr 22 2023 11:24:52,Friederike,1
5ea4c,5ea4c_session2_lista_naming_trial051_snake.wav,2,a,naming,51,snake,859,correct,NA,Apr 22 2023 11:25:34,Friederike,1
5ea4c,5ea4c_session2_lista_naming_trial052_carrot.wav,2,a,naming,52,carrot,789,correct,NA,Apr 22 2023 11:26:11,Friederike,1
5ea4c,5ea4c_session2_lista_naming_trial053_fairy.wav,2,a,naming,53,fairy,982,correct,NA,Apr 22 2023 11:27:26,Friederike,1
5ea4c,5ea4c_session2_lista_naming_trial054_wheelbarrow.wav,2,a,naming,54,wheelbarrow,-1,wrong_word,NA,Apr 22 2023 11:28:16,Friederike,1
5ea4c,5ea4c_session2_lista_naming_trial055_flag.wav,2,a,naming,55,flag,743,correct,NA,Apr 22 2023 11:29:00,Friederike,1
5ea4c,5ea4c_session2_lista_naming_trial056_rocket.wav,2,a,naming,56,rocket,799,correct,NA,Apr 22 2023 11:29:58,Friederike,1
5ea4c,5ea4c_session2_lista_naming_trial057_hat.wav,2,a,naming,57,hat,717,correct,NA,Apr 22 2023 11:30:40,Friederike,1
5ea4c,5ea4c_session2_lista_naming_trial058_book.wav,2,a,naming,58,book,868,correct,NA,Apr 22 2023 11:31:12,Friederike,1
5ea4c,5ea4c_session2_lista_naming_trial059_candle.wav,2,a,naming,59,candle,800,correct,NA,Apr 22 2023 11:31:44,Friederike,1
5ea4c,5ea4c_session2_lista_naming_trial060_mountain.wav,2,a,naming,60,mountain,-1,wrong_word,NA,Apr 22 2023 11:31:53,Friederike,1
5ea4c,5ea4c_session2_lista_naming_trial061_orange.wav,2,a,naming,61,orange,866,correct,NA,Apr 22 2023 11:32:41,Friederike,1
5ea4c,5ea4c_session2_lista_naming_trial062_nest.wav,2,a,naming,62,nest,1329,correct,NA,Apr 22 2023 11:33:25,Friederike,1
5ea4c,5ea4c_session2_lista_naming_trial063_soap.wav,2,a,naming,63,soap,960,correct,NA,Apr 22 2023 11:34:25,Friederike,1
5ea4c,5ea4c_session2_lista_naming_trial064_sweet.wav,2,a,naming,64,sweet,804,correct,NA,Apr 22 2023 11:35:30,Friederike,1
5ea4c,5ea4c_session2_lista_naming_trial065_tongue.wav,2,a,naming,65,tongue,934,correct,NA,Apr 22 2023 11:36:08,Friederike,1
5ea4c,5ea4c_session2_lista_naming_trial066_medal.wav,2,a,naming,66,medal,1286,correct,NA,Apr 22 2023 11:36:32,Friederike,1
5ea4c,5ea4c_session2_lista_naming_trial067_clown.wav,2,a,naming,67,clown,727,correct,NA,Apr 22 2023 11:36:59,Friederike,1
5ea4c,5ea4c_session2_lista_naming_trial068_tunnel.wav,2,a,naming,68,tunnel,999,correct,NA,Apr 22 2023 11:37:29,Friederike,1
5ea4c,5ea4c_session2_lista_naming_trial069_avocado.wav,2,a,naming,69,avocado,965,correct,NA,Apr 22 2023 11:37:58,Friederike,1
5ea4c,5ea4c_session2_lista_naming_trial070_lawnmower.wav,2,a,naming,70,lawnmower,1378,correct,NA,Apr 22 2023 11:38:28,Friederike,1
5ea4c,5ea4c_session2_lista_naming_trial071_caterpillar.wav,2,a,naming,71,caterpillar,1001,correct,NA,Apr 22 2023 11:39:12,Friederike,1
5ea4c,5ea4c_session2_lista_naming_trial072_curtain.wav,2,a,naming,72,curtain,1033,correct,NA,Apr 22 2023 11:39:41,Friederike,1
5ea4c,5ea4c_session2_lista_naming_trial073_bear.wav,2,a,naming,73,bear,861,correct,NA,Apr 22 2023 11:40:04,Friederike,1
5ea4c,5ea4c_session2_lista_naming_trial074_pipe.wav,2,a,naming,74,pipe,1071,correct,NA,Apr 22 2023 11:40:28,Friederike,1
5ea4c,5ea4c_session2_lista_naming_trial075_wall.wav,2,a,naming,75,wall,1102,correct,NA,Apr 22 2023 11:40:57,Friederike,1
5ea4c,5ea4c_session2_lista_naming_trial076_fox.wav,2,a,naming,76,fox,911,correct,NA,Apr 22 2023 11:41:24,Friederike,1
5ea4c,5ea4c_session2_lista_naming_trial077_comb.wav,2,a,naming,77,comb,834,correct,NA,Apr 22 2023 11:41:43,Friederike,1
5ea4c,5ea4c_session2_lista_naming_trial078_tray.wav,2,a,naming,78,tray,1074,correct,NA,Apr 22 2023 11:42:11,Friederike,1
5ea4c,5ea4c_session2_lista_naming_trial079_rhino.wav,2,a,naming,79,rhino,902,correct,NA,Apr 22 2023 11:42:41,Friederike,1
5ea4c,5ea4c_session2_lista_naming_trial080_cherry.wav,2,a,naming,80,cherry,992,correct,NA,Apr 22 2023 11:43:56,Friederike,1
5ea4c,5ea4c_session2_lista_naming_trial081_bike.wav,2,a,naming,81,bike,788,correct,NA,Apr 22 2023 11:44:20,Friederike,1
5ea4c,5ea4c_session2_lista_naming_trial082_lamp.wav,2,a,naming,82,lamp,779,correct,NA,Apr 22 2023 11:44:51,Friederike,1
5ea4c,5ea4c_session2_lista_naming_trial083_arrow.wav,2,a,naming,83,arrow,836,correct,NA,Apr 22 2023 11:45:15,Friederike,1
5ea4c,5ea4c_session2_lista_naming_trial084_map.wav,2,a,naming,84,map,920,correct,NA,Apr 22 2023 11:45:38,Friederike,1
5ea4c,5ea4c_session2_lista_naming_trial085_fence.wav,2,a,naming,85,fence,1009,correct,NA,Apr 22 2023 11:46:12,Friederike,1
5ea4c,5ea4c_session2_lista_naming_trial086_beak.wav,2,a,naming,86,beak,982,correct,NA,Apr 22 2023 11:46:33,Friederike,1
5ea4c,5ea4c_session2_lista_naming_trial087_bus.wav,2,a,naming,87,bus,1322,correct,NA,Apr 22 2023 11:47:03,Friederike,1
5ea4c,5ea4c_session2_lista_naming_trial088_pencil.wav,2,a,naming,88,pencil,937,correct,NA,Apr 22 2023 11:47:54,Friederike,1
5ea4c,5ea4c_session2_lista_naming_trial089_potato.wav,2,a,naming,89,potato,832,correct,NA,Apr 22 2023 11:48:17,Friederike,1
5ea4c,5ea4c_session2_lista_naming_trial090_glove.wav,2,a,naming,90,glove,849,correct,NA,Apr 22 2023 11:48:46,Friederike,1
5ea4c,5ea4c_session2_lista_naming_trial091_bell.wav,2,a,naming,91,bell,880,correct,NA,Apr 22 2023 11:49:14,Friederike,1
5ea4c,5ea4c_session2_lista_naming_trial092_dummy.wav,2,a,naming,92,dummy,874,correct,NA,Apr 22 2023 19:47:47,Friederike,1
5ea4c,5ea4c_session2_lista_naming_trial093_ghost.wav,2,a,naming,93,ghost,886,correct,NA,Apr 22 2023 19:48:23,Friederike,1
5ea4c,5ea4c_session2_lista_naming_trial094_wing.wav,2,a,naming,94,wing,-1,wrong_word,NA,Apr 22 2023 19:48:34,Friederike,1
5ea4c,5ea4c_session2_lista_naming_trial095_shield.wav,2,a,naming,95,shield,-1,wrong_word,NA,Apr 22 2023 19:48:48,Friederike,1
5ea4c,5ea4c_session2_lista_naming_trial096_bib.wav,2,a,naming,96,bib,1012,correct,NA,Apr 22 2023 19:49:13,Friederike,1
5ea4c,5ea4c_session2_lista_naming_trial097_drum.wav,2,a,naming,97,drum,749,correct,NA,Apr 22 2023 19:49:43,Friederike,1
5ea4c,5ea4c_session2_lista_naming_trial098_gym.wav,2,a,naming,98,gym,1164,correct,NA,Apr 22 2023 19:50:16,Friederike,1
5ea4c,5ea4c_session2_lista_naming_trial099_donkey.wav,2,a,naming,99,donkey,1757,correct,NA,Apr 22 2023 19:50:45,Friederike,1
5ea4c,5ea4c_session2_lista_naming_trial100_mouth.wav,2,a,naming,100,mouth,1300,correct,NA,Apr 22 2023 19:51:26,Friederike,1
5ea4c,5ea4c_session2_lista_naming_trial101_wave.wav,2,a,naming,101,wave,1184,correct,NA,Apr 22 2023 19:51:53,Friederike,1
5ea4c,5ea4c_session2_lista_naming_trial102_pear.wav,2,a,naming,102,pear,-1,disfluency,NA,Apr 22 2023 19:52:03,Friederike,1
5ea4c,5ea4c_session2_lista_naming_trial103_net.wav,2,a,naming,103,net,1529,correct,NA,Apr 22 2023 19:52:40,Friederike,1
5ea4c,5ea4c_session2_lista_naming_trial104_elbow.wav,2,a,naming,104,elbow,1062,correct,NA,Apr 22 2023 19:53:03,Friederike,1
5ea4c,5ea4c_session2_lista_naming_trial105_owl.wav,2,a,naming,105,owl,1080,correct,NA,Apr 22 2023 19:53:27,Friederike,1
5ea4c,5ea4c_session2_lista_naming_trial106_kitchen.wav,2,a,naming,106,kitchen,979,correct,NA,Apr 22 2023 19:53:52,Friederike,1
5ea4c,5ea4c_session2_lista_naming_trial107_kite.wav,2,a,naming,107,kite,1183,correct,NA,Apr 22 2023 19:54:32,Friederike,1
5ea4c,5ea4c_session2_lista_naming_trial108_puppet.wav,2,a,naming,108,puppet,1551,correct,NA,Apr 22 2023 19:54:57,Friederike,1
5ea4c,5ea4c_session2_lista_naming_trial109_heel.wav,2,a,naming,109,heel,944,correct,NA,Apr 22 2023 19:55:20,Friederike,1
5ea4c,5ea4c_session2_lista_naming_trial110_shoe.wav,2,a,naming,110,shoe,808,correct,NA,Apr 22 2023 19:55:53,Friederike,1
5ea4c,5ea4c_session2_lista_naming_trial111_swan.wav,2,a,naming,111,swan,854,correct,NA,Apr 22 2023 19:56:29,Friederike,1
5ea4c,5ea4c_session2_lista_naming_trial112_dress.wav,2,a,naming,112,dress,861,correct,NA,Apr 22 2023 19:57:03,Friederike,1
5ea4c,5ea4c_session2_lista_naming_trial113_tomato.wav,2,a,naming,113,tomato,973,correct,NA,Apr 22 2023 19:57:40,Friederike,1
5ea4c,5ea4c_session2_lista_naming_trial114_doctor.wav,2,a,naming,114,doctor,966,correct,NA,Apr 22 2023 19:58:09,Friederike,1
5ea4c,5ea4c_session2_lista_naming_trial115_sun.wav,2,a,naming,115,sun,800,correct,NA,Apr 22 2023 19:58:34,Friederike,1
5ea4c,5ea4c_session2_lista_naming_trial116_zip.wav,2,a,naming,116,zip,1119,correct,NA,Apr 22 2023 19:59:07,Friederike,1
5ea4c,5ea4c_session2_lista_naming_trial117_saw.wav,2,a,naming,117,saw,-1,disfluency,NA,Apr 22 2023 19:59:21,Friederike,1
5ea4c,5ea4c_session2_lista_naming_trial118_arm.wav,2,a,naming,118,arm,1167,correct,NA,Apr 22 2023 19:59:50,Friederike,1
5ea4c,5ea4c_session2_lista_naming_trial119_knife.wav,2,a,naming,119,knife,1009,correct,NA,Apr 22 2023 20:00:22,Friederike,1
5ea4c,5ea4c_session2_lista_naming_trial120_cork.wav,2,a,naming,120,cork,-1,no_resp,NA,Apr 22 2023 20:00:33,Friederike,1
5ea4c,5ea4c_session2_lista_naming_trial121_submarine.wav,2,a,naming,121,submarine,-1,wrong_word,NA,Apr 22 2023 20:00:42,Friederike,1
5ea4c,5ea4c_session2_lista_naming_trial122_pocket.wav,2,a,naming,122,pocket,1099,correct,NA,Apr 22 2023 20:01:07,Friederike,1
5ea4c,5ea4c_session2_lista_naming_trial123_bullet.wav,2,a,naming,123,bullet,1525,correct,NA,Apr 22 2023 20:01:51,Friederike,1
5ea4c,5ea4c_session2_lista_naming_trial124_judge.wav,2,a,naming,124,judge,1511,correct,NA,Apr 22 2023 20:02:13,Friederike,1
5ea4c,5ea4c_session2_lista_naming_trial125_bracelet.wav,2,a,naming,125,bracelet,1211,correct,NA,Apr 22 2023 20:02:47,Friederike,1
5ea4c,5ea4c_session2_lista_naming_trial126_apple.wav,2,a,naming,126,apple,1180,correct,NA,Apr 22 2023 20:03:18,Friederike,1
5ea4c,5ea4c_session2_lista_naming_trial127_kiwi.wav,2,a,naming,127,kiwi,2641,correct,NA,Apr 22 2023 20:03:46,Friederike,1
5ea4c,5ea4c_session2_lista_naming_trial128_tree.wav,2,a,naming,128,tree,1024,correct,NA,Apr 22 2023 20:04:17,Friederike,1
5ea4c,5ea4c_session2_lista_naming_trial129_koala.wav,2,a,naming,129,koala,1187,correct,NA,Apr 22 2023 20:04:48,Friederike,1
5ea4c,5ea4c_session2_lista_naming_trial130_robot.wav,2,a,naming,130,robot,1005,correct,NA,Apr 22 2023 20:05:15,Friederike,1
5ea4c,5ea4c_session2_lista_naming_trial131_bench.wav,2,a,naming,131,bench,941,correct,NA,Apr 22 2023 20:05:45,Friederike,1
5ea4c,5ea4c_session2_lista_naming_trial132_onion.wav,2,a,naming,132,onion,1331,correct,NA,Apr 22 2023 20:06:33,Friederike,1
5ea4c,5ea4c_session2_lista_naming_trial133_crab.wav,2,a,naming,133,crab,851,correct,NA,Apr 22 2023 20:06:57,Friederike,1
5ea4c,5ea4c_session2_lista_naming_trial134_boxer.wav,2,a,naming,134,boxer,918,correct,NA,Apr 22 2023 20:07:35,Friederike,1
5ea4c,5ea4c_session2_lista_naming_trial135_ruler.wav,2,a,naming,135,ruler,1470,correct,NA,Apr 22 2023 20:08:00,Friederike,1
5ea4c,5ea4c_session2_lista_naming_trial136_triangle.wav,2,a,naming,136,triangle,991,correct,NA,Apr 22 2023 20:09:04,Friederike,1
5ea4c,5ea4c_session2_lista_naming_trial137_pineapple.wav,2,a,naming,137,pineapple,1064,correct,NA,Apr 22 2023 20:09:26,Friederike,1
5ea4c,5ea4c_session2_lista_naming_trial138_hippo.wav,2,a,naming,138,hippo,-1,no_resp,NA,Apr 22 2023 20:09:36,Friederike,1
5ea4c,5ea4c_session2_lista_naming_trial139_lung.wav,2,a,naming,139,lung,1677,correct,NA,Apr 22 2023 20:10:10,Friederike,1
5ea4c,5ea4c_session2_lista_naming_trial140_lighter.wav,2,a,naming,140,lighter,975,correct,NA,Apr 22 2023 20:10:47,Friederike,1
5ea4c,5ea4c_session2_lista_naming_trial141_computer.wav,2,a,naming,141,computer,898,correct,NA,Apr 22 2023 20:11:11,Friederike,1
5ea4c,5ea4c_session2_lista_naming_trial142_bull.wav,2,a,naming,142,bull,1818,correct,NA,Apr 22 2023 20:11:34,Friederike,1
5ea4c,5ea4c_session2_lista_naming_trial143_tractor.wav,2,a,naming,143,tractor,990,correct,NA,Apr 22 2023 20:11:54,Friederike,1
5ea4c,5ea4c_session2_lista_naming_trial144_teacher.wav,2,a,naming,144,teacher,-1,wrong_word,NA,Apr 22 2023 20:12:07,Friederike,1
5ea4c,5ea4c_session2_lista_naming_trial145_olive.wav,2,a,naming,145,olive,1315,correct,NA,Apr 22 2023 20:12:55,Friederike,1
5ea4c,5ea4c_session2_lista_naming_trial146_fridge.wav,2,a,naming,146,fridge,1483,correct,NA,Apr 22 2023 20:13:27,Friederike,1
5ea4c,5ea4c_session2_lista_naming_trial147_ear.wav,2,a,naming,147,ear,962,correct,NA,Apr 22 2023 20:13:47,Friederike,1
5ea4c,5ea4c_session2_lista_naming_trial148_fork.wav,2,a,naming,148,fork,838,correct,NA,Apr 22 2023 20:14:51,Friederike,1
5ea4c,5ea4c_session2_lista_naming_trial149_plumber.wav,2,a,naming,149,plumber,1381,correct,NA,Apr 22 2023 20:15:47,Friederike,1
5ea4c,5ea4c_session2_lista_naming_trial150_kangaroo.wav,2,a,naming,150,kangaroo,919,correct,NA,Apr 22 2023 20:16:23,Friederike,1
