Participant_ID,File_Name,Session,List,Type_Trial,Trial_Nbr,Target,RT,Response_Trial,Comment,Date_Correction,Assessor_Name,Processed
62d13,62d13_session2_lista_naming_trial001_kite.wav,2,a,naming,1,kite,879,correct,NA,Apr 28 2023 14:08:51,Pam,1
62d13,62d13_session2_lista_naming_trial002_puppet.wav,2,a,naming,2,puppet,837,correct,NA,Apr 28 2023 14:08:54,Pam,1
62d13,62d13_session2_lista_naming_trial003_bench.wav,2,a,naming,3,bench,837,correct,NA,Apr 28 2023 14:08:57,Pam,1
62d13,62d13_session2_lista_naming_trial004_skirt.wav,2,a,naming,4,skirt,739,correct,NA,Apr 28 2023 14:09:01,Pam,1
62d13,62d13_session2_lista_naming_trial005_sword.wav,2,a,naming,5,sword,695,correct,NA,Apr 28 2023 14:09:04,Pam,1
62d13,62d13_session2_lista_naming_trial006_triangle.wav,2,a,naming,6,triangle,712,correct,NA,Apr 28 2023 14:09:06,Pam,1
62d13,62d13_session2_lista_naming_trial007_drum.wav,2,a,naming,7,drum,829,correct,NA,Apr 28 2023 14:09:11,Pam,1
62d13,62d13_session2_lista_naming_trial008_fairy.wav,2,a,naming,8,fairy,805,correct,NA,Apr 28 2023 14:09:26,Pam,1
62d13,62d13_session2_lista_naming_trial009_medal.wav,2,a,naming,9,medal,737,correct,NA,Apr 28 2023 14:09:29,Pam,1
62d13,62d13_session2_lista_naming_trial010_boxer.wav,2,a,naming,10,boxer,979,correct,NA,Apr 28 2023 14:09:31,Pam,1
62d13,62d13_session2_lista_naming_trial011_suitcase.wav,2,a,naming,11,suitcase,720,correct,NA,Apr 28 2023 14:09:49,Pam,1
62d13,62d13_session2_lista_naming_trial012_wing.wav,2,a,naming,12,wing,774,correct,NA,Apr 28 2023 14:10:02,Pam,1
62d13,62d13_session2_lista_naming_trial013_bone.wav,2,a,naming,13,bone,921,correct,NA,Apr 28 2023 14:10:05,Pam,1
62d13,62d13_session2_lista_naming_trial014_heel.wav,2,a,naming,14,heel,812,correct,NA,Apr 28 2023 14:10:08,Pam,1
62d13,62d13_session2_lista_naming_trial015_net.wav,2,a,naming,15,net,795,correct,NA,Apr 28 2023 14:10:11,Pam,1
62d13,62d13_session2_lista_naming_trial016_lung.wav,2,a,naming,16,lung,837,correct,NA,Apr 28 2023 14:10:14,Pam,1
62d13,62d13_session2_lista_naming_trial017_pear.wav,2,a,naming,17,pear,820,correct,NA,Apr 28 2023 14:10:17,Pam,1
62d13,62d13_session2_lista_naming_trial018_pineapple.wav,2,a,naming,18,pineapple,832,correct,NA,Apr 28 2023 14:10:26,Pam,1
62d13,62d13_session2_lista_naming_trial019_kiwi.wav,2,a,naming,19,kiwi,853,correct,NA,Apr 28 2023 14:10:29,Pam,1
62d13,62d13_session2_lista_naming_trial020_teacher.wav,2,a,naming,20,teacher,862,correct,NA,Apr 28 2023 14:10:40,Pam,1
62d13,62d13_session2_lista_naming_trial021_pencil.wav,2,a,naming,21,pencil,762,correct,NA,Apr 28 2023 14:10:43,Pam,1
62d13,62d13_session2_lista_naming_trial022_bracelet.wav,2,a,naming,22,bracelet,904,correct,NA,Apr 28 2023 14:10:46,Pam,1
62d13,62d13_session2_lista_naming_trial023_donkey.wav,2,a,naming,23,donkey,915,correct,NA,Apr 28 2023 14:10:50,Pam,1
62d13,62d13_session2_lista_naming_trial024_arm.wav,2,a,naming,24,arm,837,correct,NA,Apr 28 2023 14:10:53,Pam,1
62d13,62d13_session2_lista_naming_trial025_ghost.wav,2,a,naming,25,ghost,904,correct,NA,Apr 28 2023 14:10:55,Pam,1
62d13,62d13_session2_lista_naming_trial026_compass.wav,2,a,naming,26,compass,904,correct,NA,Apr 28 2023 14:10:59,Pam,1
62d13,62d13_session2_lista_naming_trial027_battery.wav,2,a,naming,27,battery,896,correct,NA,Apr 28 2023 14:11:02,Pam,1
62d13,62d13_session2_lista_naming_trial028_tree.wav,2,a,naming,28,tree,837,correct,NA,Apr 28 2023 14:11:05,Pam,1
62d13,62d13_session2_lista_naming_trial029_butterfly.wav,2,a,naming,29,butterfly,804,correct,NA,Apr 28 2023 14:11:07,Pam,1
62d13,62d13_session2_lista_naming_trial030_thumb.wav,2,a,naming,30,thumb,932,correct,NA,Apr 28 2023 14:11:30,Pam,1
62d13,62d13_session2_lista_naming_trial031_bell.wav,2,a,naming,31,bell,1040,correct,NA,Apr 28 2023 14:11:33,Pam,1
62d13,62d13_session2_lista_naming_trial032_rocket.wav,2,a,naming,32,rocket,800,correct,NA,Apr 28 2023 14:11:35,Pam,1
62d13,62d13_session2_lista_naming_trial033_hippo.wav,2,a,naming,33,hippo,1004,correct,NA,Apr 28 2023 14:11:38,Pam,1
62d13,62d13_session2_lista_naming_trial034_mountain.wav,2,a,naming,34,mountain,916,correct,NA,Apr 28 2023 14:11:42,Pam,1
62d13,62d13_session2_lista_naming_trial035_helicopter.wav,2,a,naming,35,helicopter,766,correct,NA,Apr 28 2023 14:11:45,Pam,1
62d13,62d13_session2_lista_naming_trial036_tray.wav,2,a,naming,36,tray,858,correct,NA,Apr 28 2023 14:11:59,Pam,1
62d13,62d13_session2_lista_naming_trial037_bullet.wav,2,a,naming,37,bullet,1415,correct,NA,Apr 28 2023 14:12:02,Pam,1
62d13,62d13_session2_lista_naming_trial038_avocado.wav,2,a,naming,38,avocado,1057,correct,NA,Apr 28 2023 14:12:05,Pam,1
62d13,62d13_session2_lista_naming_trial039_sweet.wav,2,a,naming,39,sweet,832,correct,NA,Apr 28 2023 14:12:12,Pam,1
62d13,62d13_session2_lista_naming_trial040_fireplace.wav,2,a,naming,40,fireplace,988,correct,NA,Apr 28 2023 14:12:30,Pam,1
62d13,62d13_session2_lista_naming_trial041_tambourine.wav,2,a,naming,41,tambourine,982,correct,NA,Apr 28 2023 14:12:33,Pam,1
62d13,62d13_session2_lista_naming_trial042_potato.wav,2,a,naming,42,potato,816,correct,NA,Apr 28 2023 14:12:36,Pam,1
62d13,62d13_session2_lista_naming_trial043_zebra.wav,2,a,naming,43,zebra,890,correct,NA,Apr 28 2023 14:13:21,Pam,1
62d13,62d13_session2_lista_naming_trial044_dress.wav,2,a,naming,44,dress,870,correct,NA,Apr 28 2023 14:13:33,Pam,1
62d13,62d13_session2_lista_naming_trial045_curtain.wav,2,a,naming,45,curtain,946,correct,NA,Apr 28 2023 14:13:43,Pam,1
62d13,62d13_session2_lista_naming_trial046_submarine.wav,2,a,naming,46,submarine,1017,correct,NA,Apr 28 2023 14:14:02,Pam,1
62d13,62d13_session2_lista_naming_trial047_doughnut.wav,2,a,naming,47,doughnut,1032,correct,NA,Apr 28 2023 14:14:06,Pam,1
62d13,62d13_session2_lista_naming_trial048_computer.wav,2,a,naming,48,computer,872,correct,NA,Apr 28 2023 14:14:16,Pam,1
62d13,62d13_session2_lista_naming_trial049_jellyfish.wav,2,a,naming,49,jellyfish,941,correct,NA,Apr 28 2023 14:14:25,Pam,1
62d13,62d13_session2_lista_naming_trial050_crab.wav,2,a,naming,50,crab,881,correct,NA,Apr 28 2023 14:14:36,Pam,1
62d13,62d13_session2_lista_naming_trial051_basket.wav,2,a,naming,51,basket,891,correct,NA,Apr 28 2023 14:14:40,Pam,1
62d13,62d13_session2_lista_naming_trial052_tractor.wav,2,a,naming,52,tractor,705,correct,NA,Apr 28 2023 14:14:50,Pam,1
62d13,62d13_session2_lista_naming_trial053_apple.wav,2,a,naming,53,apple,857,correct,NA,Apr 28 2023 14:14:54,Pam,1
62d13,62d13_session2_lista_naming_trial054_fence.wav,2,a,naming,54,fence,716,correct,NA,Apr 28 2023 14:15:05,Pam,1
62d13,62d13_session2_lista_naming_trial055_comb.wav,2,a,naming,55,comb,866,correct,NA,Apr 28 2023 14:15:08,Pam,1
62d13,62d13_session2_lista_naming_trial056_dice.wav,2,a,naming,56,dice,882,correct,NA,Apr 28 2023 14:15:11,Pam,1
62d13,62d13_session2_lista_naming_trial057_saw.wav,2,a,naming,57,saw,1190,correct,NA,Apr 28 2023 14:15:23,Pam,1
62d13,62d13_session2_lista_naming_trial058_rhino.wav,2,a,naming,58,rhino,999,correct,NA,Apr 28 2023 14:15:28,Pam,1
62d13,62d13_session2_lista_naming_trial059_scissors.wav,2,a,naming,59,scissors,809,correct,NA,Apr 28 2023 14:15:39,Pam,1
62d13,62d13_session2_lista_naming_trial060_bull.wav,2,a,naming,60,bull,1132,correct,NA,Apr 28 2023 14:15:42,Pam,1
62d13,62d13_session2_lista_naming_trial061_island.wav,2,a,naming,61,island,916,correct,NA,Apr 28 2023 14:15:45,Pam,1
62d13,62d13_session2_lista_naming_trial062_lighthouse.wav,2,a,naming,62,lighthouse,827,correct,NA,Apr 28 2023 14:15:59,Pam,1
62d13,62d13_session2_lista_naming_trial063_carrot.wav,2,a,naming,63,carrot,882,correct,NA,Apr 28 2023 14:16:02,Pam,1
62d13,62d13_session2_lista_naming_trial064_sun.wav,2,a,naming,64,sun,809,correct,NA,Apr 28 2023 14:16:15,Pam,1
62d13,62d13_session2_lista_naming_trial065_shower.wav,2,a,naming,65,shower,766,correct,NA,Apr 28 2023 14:16:19,Pam,1
62d13,62d13_session2_lista_naming_trial066_tiger.wav,2,a,naming,66,tiger,824,correct,NA,Apr 28 2023 14:16:22,Pam,1
62d13,62d13_session2_lista_naming_trial067_koala.wav,2,a,naming,67,koala,1179,correct,NA,Apr 28 2023 14:16:31,Pam,1
62d13,62d13_session2_lista_naming_trial068_flag.wav,2,a,naming,68,flag,799,correct,NA,Apr 28 2023 14:16:39,Pam,1
62d13,62d13_session2_lista_naming_trial069_magnet.wav,2,a,naming,69,magnet,839,correct,NA,Apr 28 2023 14:16:54,Pam,1
62d13,62d13_session2_lista_naming_trial070_bus.wav,2,a,naming,70,bus,1074,correct,NA,Apr 28 2023 14:16:59,Pam,1
62d13,62d13_session2_lista_naming_trial071_shoe.wav,2,a,naming,71,shoe,932,correct,NA,Apr 28 2023 14:17:05,Pam,1
62d13,62d13_session2_lista_naming_trial072_olive.wav,2,a,naming,72,olive,1165,correct,NA,Apr 28 2023 14:17:14,Pam,1
62d13,62d13_session2_lista_naming_trial073_fridge.wav,2,a,naming,73,fridge,783,correct,NA,Apr 28 2023 14:17:17,Pam,1
62d13,62d13_session2_lista_naming_trial074_swan.wav,2,a,naming,74,swan,741,correct,NA,Apr 28 2023 14:17:22,Pam,1
62d13,62d13_session2_lista_naming_trial075_flipper.wav,2,a,naming,75,flipper,850,correct,NA,Apr 28 2023 14:17:38,Pam,1
62d13,62d13_session2_lista_naming_trial076_owl.wav,2,a,naming,76,owl,941,correct,NA,Apr 28 2023 14:17:41,Pam,1
62d13,62d13_session2_lista_naming_trial077_lawnmower.wav,2,a,naming,77,lawnmower,1215,correct,NA,Apr 28 2023 14:17:44,Pam,1
62d13,62d13_session2_lista_naming_trial078_squirrel.wav,2,a,naming,78,squirrel,807,correct,NA,Apr 28 2023 14:17:52,Pam,1
62d13,62d13_session2_lista_naming_trial079_goat.wav,2,a,naming,79,goat,1090,correct,NA,Apr 28 2023 14:17:55,Pam,1
62d13,62d13_session2_lista_naming_trial080_limo.wav,2,a,naming,80,limo,940,correct,NA,Apr 28 2023 14:18:09,Pam,1
62d13,62d13_session2_lista_naming_trial081_flower.wav,2,a,naming,81,flower,774,correct,NA,Apr 28 2023 14:18:12,Pam,1
62d13,62d13_session2_lista_naming_trial082_orange.wav,2,a,naming,82,orange,824,correct,NA,Apr 28 2023 14:18:15,Pam,1
62d13,62d13_session2_lista_naming_trial083_castle.wav,2,a,naming,83,castle,1015,correct,NA,Apr 28 2023 14:18:19,Pam,1
62d13,62d13_session2_lista_naming_trial084_tap.wav,2,a,naming,84,tap,899,correct,NA,Apr 28 2023 14:18:21,Pam,1
62d13,62d13_session2_lista_naming_trial085_camel.wav,2,a,naming,85,camel,1024,correct,NA,Apr 28 2023 14:18:24,Pam,1
62d13,62d13_session2_lista_naming_trial086_robot.wav,2,a,naming,86,robot,957,correct,NA,Apr 28 2023 14:18:27,Pam,1
62d13,62d13_session2_lista_naming_trial087_bike.wav,2,a,naming,87,bike,1040,correct,NA,Apr 28 2023 14:18:30,Pam,1
62d13,62d13_session2_lista_naming_trial088_wave.wav,2,a,naming,88,wave,1174,correct,NA,Apr 28 2023 14:18:33,Pam,1
62d13,62d13_session2_lista_naming_trial089_mermaid.wav,2,a,naming,89,mermaid,966,correct,NA,Apr 28 2023 14:18:37,Pam,1
62d13,62d13_session2_lista_naming_trial090_nest.wav,2,a,naming,90,nest,1199,correct,NA,Apr 28 2023 14:18:40,Pam,1
62d13,62d13_session2_lista_naming_trial091_windmill.wav,2,a,naming,91,windmill,1615,correct,NA,Apr 28 2023 14:18:43,Pam,1
62d13,62d13_session2_lista_naming_trial092_train.wav,2,a,naming,92,train,921,correct,NA,Apr 28 2023 14:18:56,Pam,1
62d13,62d13_session2_lista_naming_trial093_onion.wav,2,a,naming,93,onion,865,correct,NA,Apr 28 2023 14:18:59,Pam,1
62d13,62d13_session2_lista_naming_trial094_lamp.wav,2,a,naming,94,lamp,774,correct,NA,Apr 28 2023 14:19:02,Pam,1
62d13,62d13_session2_lista_naming_trial095_kangaroo.wav,2,a,naming,95,kangaroo,1257,correct,NA,Apr 28 2023 14:19:04,Pam,1
62d13,62d13_session2_lista_naming_trial096_mouth.wav,2,a,naming,96,mouth,840,correct,NA,Apr 28 2023 14:19:20,Pam,1
62d13,62d13_session2_lista_naming_trial097_candle.wav,2,a,naming,97,candle,759,correct,NA,Apr 28 2023 14:19:28,Pam,1
62d13,62d13_session2_lista_naming_trial098_caterpillar.wav,2,a,naming,98,caterpillar,849,correct,NA,Apr 28 2023 14:19:32,Pam,1
62d13,62d13_session2_lista_naming_trial099_fork.wav,2,a,naming,99,fork,695,correct,NA,Apr 28 2023 14:19:45,Pam,1
62d13,62d13_session2_lista_naming_trial100_rabbit.wav,2,a,naming,100,rabbit,774,correct,NA,Apr 28 2023 14:19:48,Pam,1
62d13,62d13_session2_lista_naming_trial101_glove.wav,2,a,naming,101,glove,891,correct,NA,Apr 28 2023 14:19:52,Pam,1
62d13,62d13_session2_lista_naming_trial102_clown.wav,2,a,naming,102,clown,841,correct,NA,Apr 28 2023 14:19:56,Pam,1
62d13,62d13_session2_lista_naming_trial103_drawer.wav,2,a,naming,103,drawer,949,correct,NA,Apr 28 2023 14:19:58,Pam,1
62d13,62d13_session2_lista_naming_trial104_knife.wav,2,a,naming,104,knife,791,correct,NA,Apr 28 2023 14:20:04,Pam,1
62d13,62d13_session2_lista_naming_trial105_bear.wav,2,a,naming,105,bear,1082,correct,NA,Apr 28 2023 14:20:07,Pam,1
62d13,62d13_session2_lista_naming_trial106_pepper.wav,2,a,naming,106,pepper,1069,correct,NA,Apr 28 2023 14:20:11,Pam,1
62d13,62d13_session2_lista_naming_trial107_elbow.wav,2,a,naming,107,elbow,1151,correct,NA,Apr 28 2023 14:20:15,Pam,1
62d13,62d13_session2_lista_naming_trial108_lighter.wav,2,a,naming,108,lighter,807,correct,NA,Apr 28 2023 14:20:21,Pam,1
62d13,62d13_session2_lista_naming_trial109_shield.wav,2,a,naming,109,shield,766,correct,NA,Apr 28 2023 14:20:26,Pam,1
62d13,62d13_session2_lista_naming_trial110_book.wav,2,a,naming,110,book,824,correct,NA,Apr 28 2023 14:20:29,Pam,1
62d13,62d13_session2_lista_naming_trial111_cork.wav,2,a,naming,111,cork,916,correct,NA,Apr 28 2023 14:20:31,Pam,1
62d13,62d13_session2_lista_naming_trial112_fox.wav,2,a,naming,112,fox,938,correct,NA,Apr 28 2023 14:20:39,Pam,1
62d13,62d13_session2_lista_naming_trial113_bib.wav,2,a,naming,113,bib,1182,correct,NA,Apr 28 2023 14:20:42,Pam,1
62d13,62d13_session2_lista_naming_trial114_peg.wav,2,a,naming,114,peg,832,correct,NA,Apr 28 2023 14:20:51,Pam,1
62d13,62d13_session2_lista_naming_trial115_ruler.wav,2,a,naming,115,ruler,1074,correct,NA,Apr 28 2023 14:20:53,Pam,1
62d13,62d13_session2_lista_naming_trial116_kitchen.wav,2,a,naming,116,kitchen,832,correct,NA,Apr 28 2023 14:21:03,Pam,1
62d13,62d13_session2_lista_naming_trial117_coat.wav,2,a,naming,117,coat,849,correct,NA,Apr 28 2023 14:21:13,Pam,1
62d13,62d13_session2_lista_naming_trial118_tie.wav,2,a,naming,118,tie,841,correct,NA,Apr 28 2023 14:21:21,Pam,1
62d13,62d13_session2_lista_naming_trial119_judge.wav,2,a,naming,119,judge,941,correct,NA,Apr 28 2023 14:21:25,Pam,1
62d13,62d13_session2_lista_naming_trial120_snake.wav,2,a,naming,120,snake,659,correct,NA,Apr 28 2023 14:21:36,Pam,1
62d13,62d13_session2_lista_naming_trial121_sausage.wav,2,a,naming,121,sausage,769,correct,NA,Apr 28 2023 14:21:50,Pam,1
62d13,62d13_session2_lista_naming_trial122_zip.wav,2,a,naming,122,zip,816,correct,NA,Apr 28 2023 14:21:54,Pam,1
62d13,62d13_session2_lista_naming_trial123_ear.wav,2,a,naming,123,ear,841,correct,NA,Apr 28 2023 14:21:57,Pam,1
62d13,62d13_session2_lista_naming_trial124_tomato.wav,2,a,naming,124,tomato,800,correct,NA,Apr 28 2023 14:22:13,Pam,1
62d13,62d13_session2_lista_naming_trial125_whale.wav,2,a,naming,125,whale,1290,correct,NA,Apr 28 2023 14:22:17,Pam,1
62d13,62d13_session2_lista_naming_trial126_bottle.wav,2,a,naming,126,bottle,973,correct,NA,Apr 28 2023 14:22:28,Pam,1
62d13,62d13_session2_lista_naming_trial127_tunnel.wav,2,a,naming,127,tunnel,931,correct,NA,Apr 28 2023 14:22:38,Pam,1
62d13,62d13_session2_lista_naming_trial128_key.wav,2,a,naming,128,key,816,correct,NA,Apr 28 2023 14:22:41,Pam,1
62d13,62d13_session2_lista_naming_trial129_beak.wav,2,a,naming,129,beak,1199,correct,NA,Apr 28 2023 14:22:44,Pam,1
62d13,62d13_session2_lista_naming_trial130_plumber.wav,2,a,naming,130,plumber,1307,correct,NA,Apr 28 2023 14:22:47,Pam,1
62d13,62d13_session2_lista_naming_trial131_suit.wav,2,a,naming,131,suit,871,correct,NA,Apr 28 2023 14:22:59,Pam,1
62d13,62d13_session2_lista_naming_trial132_star.wav,2,a,naming,132,star,582,correct,NA,Apr 28 2023 14:23:13,Pam,1
62d13,62d13_session2_lista_naming_trial133_dummy.wav,2,a,naming,133,dummy,899,correct,NA,Apr 28 2023 14:23:16,Pam,1
62d13,62d13_session2_lista_naming_trial134_pocket.wav,2,a,naming,134,pocket,909,correct,NA,Apr 28 2023 14:23:30,Pam,1
62d13,62d13_session2_lista_naming_trial135_wheelbarrow.wav,2,a,naming,135,wheelbarrow,758,correct,NA,Apr 28 2023 14:23:33,Pam,1
62d13,62d13_session2_lista_naming_trial136_tongue.wav,2,a,naming,136,tongue,1232,correct,NA,Apr 28 2023 14:23:37,Pam,1
62d13,62d13_session2_lista_naming_trial137_arrow.wav,2,a,naming,137,arrow,832,correct,NA,Apr 28 2023 14:23:41,Pam,1
62d13,62d13_session2_lista_naming_trial138_rose.wav,2,a,naming,138,rose,724,correct,NA,Apr 28 2023 14:23:44,Pam,1
62d13,62d13_session2_lista_naming_trial139_soap.wav,2,a,naming,139,soap,841,correct,NA,Apr 28 2023 14:23:55,Pam,1
62d13,62d13_session2_lista_naming_trial140_gym.wav,2,a,naming,140,gym,1282,correct,NA,Apr 28 2023 14:24:04,Pam,1
62d13,62d13_session2_lista_naming_trial141_tattoo.wav,2,a,naming,141,tattoo,991,correct,NA,Apr 28 2023 14:24:11,Pam,1
62d13,62d13_session2_lista_naming_trial142_circle.wav,2,a,naming,142,circle,614,correct,NA,Apr 28 2023 14:24:21,Pam,1
62d13,62d13_session2_lista_naming_trial143_pipe.wav,2,a,naming,143,pipe,790,correct,NA,Apr 28 2023 14:24:37,Pam,1
62d13,62d13_session2_lista_naming_trial144_map.wav,2,a,naming,144,map,1040,correct,NA,Apr 28 2023 14:24:41,Pam,1
62d13,62d13_session2_lista_naming_trial145_doctor.wav,2,a,naming,145,doctor,1124,correct,NA,Apr 28 2023 14:24:44,Pam,1
62d13,62d13_session2_lista_naming_trial146_queen.wav,2,a,naming,146,queen,882,correct,NA,Apr 28 2023 14:24:55,Pam,1
62d13,62d13_session2_lista_naming_trial147_hat.wav,2,a,naming,147,hat,766,correct,NA,Apr 28 2023 14:24:58,Pam,1
62d13,62d13_session2_lista_naming_trial148_cherry.wav,2,a,naming,148,cherry,957,correct,NA,Apr 28 2023 14:25:04,Pam,1
62d13,62d13_session2_lista_naming_trial149_wall.wav,2,a,naming,149,wall,932,correct,NA,Apr 28 2023 14:25:07,Pam,1
62d13,62d13_session2_lista_naming_trial150_butter.wav,2,a,naming,150,butter,1015,correct,NA,Apr 28 2023 14:25:10,Pam,1
