Participant_ID,File_Name,Session,List,Type_Trial,Trial_Nbr,Target,RT,Response_Trial,Comment,Date_Correction,Assessor_Name,Processed
5efde,5efde_session2_lista_naming_trial001_tattoo.wav,2,a,naming,1,tattoo,954,correct,NA,Apr 14 2023 17:55:53,Agnieszka,1
5efde,5efde_session2_lista_naming_trial002_tap.wav,2,a,naming,2,tap,941,correct,NA,Apr 14 2023 17:56:03,Agnieszka,1
5efde,5efde_session2_lista_naming_trial003_potato.wav,2,a,naming,3,potato,724,correct,NA,Apr 14 2023 17:56:17,Agnieszka,1
5efde,5efde_session2_lista_naming_trial004_shoe.wav,2,a,naming,4,shoe,1011,correct,NA,Apr 14 2023 17:56:31,Agnieszka,1
5efde,5efde_session2_lista_naming_trial005_net.wav,2,a,naming,5,net,1024,correct,NA,Apr 14 2023 17:56:43,Agnieszka,1
5efde,5efde_session2_lista_naming_trial006_lighthouse.wav,2,a,naming,6,lighthouse,820,correct,NA,Apr 14 2023 17:57:05,Agnieszka,1
5efde,5efde_session2_lista_naming_trial007_pocket.wav,2,a,naming,7,pocket,1017,correct,NA,Apr 14 2023 17:57:28,Agnieszka,1
5efde,5efde_session2_lista_naming_trial008_bracelet.wav,2,a,naming,8,bracelet,1183,correct,NA,Apr 14 2023 17:57:35,Agnieszka,1
5efde,5efde_session2_lista_naming_trial009_zebra.wav,2,a,naming,9,zebra,874,correct,NA,Apr 14 2023 17:57:49,Agnieszka,1
5efde,5efde_session2_lista_naming_trial010_key.wav,2,a,naming,10,key,826,correct,NA,Apr 14 2023 17:58:01,Agnieszka,1
5efde,5efde_session2_lista_naming_trial011_kiwi.wav,2,a,naming,11,kiwi,810,correct,NA,Apr 14 2023 17:58:15,Agnieszka,1
5efde,5efde_session2_lista_naming_trial012_tomato.wav,2,a,naming,12,tomato,743,correct,NA,Apr 14 2023 17:59:36,Agnieszka,1
5efde,5efde_session2_lista_naming_trial013_doctor.wav,2,a,naming,13,doctor,848,correct,NA,Apr 14 2023 17:59:45,Agnieszka,1
5efde,5efde_session2_lista_naming_trial014_pepper.wav,2,a,naming,14,pepper,871,correct,NA,Apr 14 2023 17:59:57,Agnieszka,1
5efde,5efde_session2_lista_naming_trial015_drawer.wav,2,a,naming,15,drawer,973,correct,NA,Apr 14 2023 18:00:19,Agnieszka,1
5efde,5efde_session2_lista_naming_trial016_sausage.wav,2,a,naming,16,sausage,1040,correct,NA,Apr 14 2023 18:00:35,Agnieszka,1
5efde,5efde_session2_lista_naming_trial017_donkey.wav,2,a,naming,17,donkey,1087,correct,NA,Apr 14 2023 18:00:43,Agnieszka,1
5efde,5efde_session2_lista_naming_trial018_koala.wav,2,a,naming,18,koala,995,correct,NA,Apr 14 2023 18:00:52,Agnieszka,1
5efde,5efde_session2_lista_naming_trial019_suitcase.wav,2,a,naming,19,suitcase,845,correct,NA,Apr 14 2023 18:01:04,Agnieszka,1
5efde,5efde_session2_lista_naming_trial020_cork.wav,2,a,naming,20,cork,2065,correct,NA,Apr 14 2023 18:01:13,Agnieszka,1
5efde,5efde_session2_lista_naming_trial021_owl.wav,2,a,naming,21,owl,1024,correct,NA,Apr 14 2023 18:01:30,Agnieszka,1
5efde,5efde_session2_lista_naming_trial022_kite.wav,2,a,naming,22,kite,861,correct,NA,Apr 14 2023 18:01:42,Agnieszka,1
5efde,5efde_session2_lista_naming_trial023_rhino.wav,2,a,naming,23,rhino,826,correct,NA,Apr 14 2023 18:01:51,Agnieszka,1
5efde,5efde_session2_lista_naming_trial024_pencil.wav,2,a,naming,24,pencil,797,correct,NA,Apr 14 2023 18:02:00,Agnieszka,1
5efde,5efde_session2_lista_naming_trial025_map.wav,2,a,naming,25,map,887,correct,NA,Apr 14 2023 18:02:06,Agnieszka,1
5efde,5efde_session2_lista_naming_trial026_knife.wav,2,a,naming,26,knife,804,correct,NA,Apr 14 2023 18:02:14,Agnieszka,1
5efde,5efde_session2_lista_naming_trial027_ruler.wav,2,a,naming,27,ruler,1689,correct,NA,Apr 14 2023 18:02:20,Agnieszka,1
5efde,5efde_session2_lista_naming_trial028_tongue.wav,2,a,naming,28,tongue,903,correct,NA,Apr 14 2023 18:02:27,Agnieszka,1
5efde,5efde_session2_lista_naming_trial029_avocado.wav,2,a,naming,29,avocado,1043,correct,NA,Apr 14 2023 18:02:34,Agnieszka,1
5efde,5efde_session2_lista_naming_trial030_flower.wav,2,a,naming,30,flower,1119,correct,NA,Apr 14 2023 18:02:44,Agnieszka,1
5efde,5efde_session2_lista_naming_trial031_rabbit.wav,2,a,naming,31,rabbit,1097,correct,NA,Apr 14 2023 18:02:51,Agnieszka,1
5efde,5efde_session2_lista_naming_trial032_rocket.wav,2,a,naming,32,rocket,871,correct,NA,Apr 14 2023 18:03:03,Agnieszka,1
5efde,5efde_session2_lista_naming_trial033_heel.wav,2,a,naming,33,heel,1084,correct,NA,Apr 14 2023 18:03:09,Agnieszka,1
5efde,5efde_session2_lista_naming_trial034_nest.wav,2,a,naming,34,nest,858,correct,NA,Apr 14 2023 18:03:21,Agnieszka,1
5efde,5efde_session2_lista_naming_trial035_bike.wav,2,a,naming,35,bike,928,correct,NA,Apr 14 2023 18:03:31,Agnieszka,1
5efde,5efde_session2_lista_naming_trial036_magnet.wav,2,a,naming,36,magnet,1106,correct,NA,Apr 14 2023 18:03:41,Agnieszka,1
5efde,5efde_session2_lista_naming_trial037_fence.wav,2,a,naming,37,fence,864,correct,NA,Apr 14 2023 18:04:00,Agnieszka,1
5efde,5efde_session2_lista_naming_trial038_crab.wav,2,a,naming,38,crab,966,correct,NA,Apr 14 2023 18:04:06,Agnieszka,1
5efde,5efde_session2_lista_naming_trial039_curtain.wav,2,a,naming,39,curtain,1253,correct,NA,Apr 14 2023 18:04:15,Agnieszka,1
5efde,5efde_session2_lista_naming_trial040_snake.wav,2,a,naming,40,snake,769,correct,NA,Apr 14 2023 18:04:28,Agnieszka,1
5efde,5efde_session2_lista_naming_trial041_judge.wav,2,a,naming,41,judge,979,correct,NA,Apr 14 2023 18:04:42,Agnieszka,1
5efde,5efde_session2_lista_naming_trial042_flipper.wav,2,a,naming,42,flipper,1855,correct,NA,Apr 14 2023 18:04:57,Agnieszka,1
5efde,5efde_session2_lista_naming_trial043_apple.wav,2,a,naming,43,apple,1027,correct,NA,Apr 14 2023 18:05:12,Agnieszka,1
5efde,5efde_session2_lista_naming_trial044_bullet.wav,2,a,naming,44,bullet,1180,correct,NA,Apr 14 2023 18:05:24,Agnieszka,1
5efde,5efde_session2_lista_naming_trial045_dress.wav,2,a,naming,45,dress,782,correct,NA,Apr 14 2023 18:05:36,Agnieszka,1
5efde,5efde_session2_lista_naming_trial046_rose.wav,2,a,naming,46,rose,727,correct,NA,Apr 14 2023 18:05:47,Agnieszka,1
5efde,5efde_session2_lista_naming_trial047_pear.wav,2,a,naming,47,pear,1075,correct,NA,Apr 14 2023 18:05:58,Agnieszka,1
5efde,5efde_session2_lista_naming_trial048_jellyfish.wav,2,a,naming,48,jellyfish,989,correct,NA,Apr 14 2023 18:06:27,Agnieszka,1
5efde,5efde_session2_lista_naming_trial049_bull.wav,2,a,naming,49,bull,2418,correct,NA,Apr 14 2023 18:06:37,Agnieszka,1
5efde,5efde_session2_lista_naming_trial050_tree.wav,2,a,naming,50,tree,915,correct,NA,Apr 14 2023 18:06:52,Agnieszka,1
5efde,5efde_session2_lista_naming_trial051_clown.wav,2,a,naming,51,clown,906,correct,NA,Apr 14 2023 18:06:59,Agnieszka,1
5efde,5efde_session2_lista_naming_trial052_butterfly.wav,2,a,naming,52,butterfly,922,correct,NA,Apr 14 2023 18:07:05,Agnieszka,1
5efde,5efde_session2_lista_naming_trial053_thumb.wav,2,a,naming,53,thumb,845,correct,NA,Apr 14 2023 18:07:21,Agnieszka,1
5efde,5efde_session2_lista_naming_trial054_swan.wav,2,a,naming,54,swan,817,correct,NA,Apr 14 2023 18:07:36,Agnieszka,1
5efde,5efde_session2_lista_naming_trial055_scissors.wav,2,a,naming,55,scissors,791,correct,NA,Apr 14 2023 18:07:49,Agnieszka,1
5efde,5efde_session2_lista_naming_trial056_suit.wav,2,a,naming,56,suit,1017,correct,NA,Apr 14 2023 18:08:04,Agnieszka,1
5efde,5efde_session2_lista_naming_trial057_onion.wav,2,a,naming,57,onion,1116,correct,NA,Apr 14 2023 18:08:19,Agnieszka,1
5efde,5efde_session2_lista_naming_trial058_gym.wav,2,a,naming,58,gym,1463,correct,NA,Apr 14 2023 18:08:32,Agnieszka,1
5efde,5efde_session2_lista_naming_trial059_wing.wav,2,a,naming,59,wing,1444,correct,NA,Apr 14 2023 18:08:42,Agnieszka,1
5efde,5efde_session2_lista_naming_trial060_wave.wav,2,a,naming,60,wave,1419,correct,NA,Apr 14 2023 18:08:50,Agnieszka,1
5efde,5efde_session2_lista_naming_trial061_soap.wav,2,a,naming,61,soap,1552,correct,NA,Apr 14 2023 18:08:59,Agnieszka,1
5efde,5efde_session2_lista_naming_trial062_mermaid.wav,2,a,naming,62,mermaid,880,correct,NA,Apr 14 2023 18:09:06,Agnieszka,1
5efde,5efde_session2_lista_naming_trial063_kangaroo.wav,2,a,naming,63,kangaroo,2180,correct,NA,Apr 14 2023 18:09:23,Agnieszka,1
5efde,5efde_session2_lista_naming_trial064_helicopter.wav,2,a,naming,64,helicopter,1476,correct,NA,Apr 14 2023 18:09:34,Agnieszka,1
5efde,5efde_session2_lista_naming_trial065_skirt.wav,2,a,naming,65,skirt,1339,correct,NA,Apr 14 2023 18:09:43,Agnieszka,1
5efde,5efde_session2_lista_naming_trial066_goat.wav,2,a,naming,66,goat,2470,correct,NA,Apr 14 2023 18:09:54,Agnieszka,1
5efde,5efde_session2_lista_naming_trial067_fairy.wav,2,a,naming,67,fairy,785,correct,NA,Apr 14 2023 18:10:08,Agnieszka,1
5efde,5efde_session2_lista_naming_trial068_fireplace.wav,2,a,naming,68,fireplace,1081,correct,NA,Apr 14 2023 18:10:20,Agnieszka,1
5efde,5efde_session2_lista_naming_trial069_doughnut.wav,2,a,naming,69,doughnut,1176,correct,NA,Apr 14 2023 18:10:27,Agnieszka,1
5efde,5efde_session2_lista_naming_trial070_tiger.wav,2,a,naming,70,tiger,-1,wrong_word,NA,Apr 14 2023 18:10:33,Agnieszka,1
5efde,5efde_session2_lista_naming_trial071_mountain.wav,2,a,naming,71,mountain,-1,wrong_word,NA,Apr 14 2023 18:10:39,Agnieszka,1
5efde,5efde_session2_lista_naming_trial072_book.wav,2,a,naming,72,book,778,correct,NA,Apr 14 2023 18:10:54,Agnieszka,1
5efde,5efde_session2_lista_naming_trial073_compass.wav,2,a,naming,73,compass,1001,correct,NA,Apr 14 2023 18:11:06,Agnieszka,1
5efde,5efde_session2_lista_naming_trial074_sword.wav,2,a,naming,74,sword,1285,correct,NA,Apr 14 2023 18:11:17,Agnieszka,1
5efde,5efde_session2_lista_naming_trial075_candle.wav,2,a,naming,75,candle,1514,correct,NA,Apr 14 2023 18:11:24,Agnieszka,1
5efde,5efde_session2_lista_naming_trial076_teacher.wav,2,a,naming,76,teacher,1282,correct,NA,Apr 14 2023 18:11:39,Agnieszka,1
5efde,5efde_session2_lista_naming_trial077_queen.wav,2,a,naming,77,queen,1399,correct,NA,Apr 14 2023 18:11:52,Agnieszka,1
5efde,5efde_session2_lista_naming_trial078_lawnmower.wav,2,a,naming,78,lawnmower,1253,correct,NA,Apr 14 2023 18:11:58,Agnieszka,1
5efde,5efde_session2_lista_naming_trial079_wall.wav,2,a,naming,79,wall,931,correct,NA,Apr 14 2023 18:12:08,Agnieszka,1
5efde,5efde_session2_lista_naming_trial080_boxer.wav,2,a,naming,80,boxer,1763,correct,NA,Apr 14 2023 18:12:18,Agnieszka,1
5efde,5efde_session2_lista_naming_trial081_tunnel.wav,2,a,naming,81,tunnel,868,correct,NA,Apr 14 2023 18:12:29,Agnieszka,1
5efde,5efde_session2_lista_naming_trial082_squirrel.wav,2,a,naming,82,squirrel,868,correct,NA,Apr 14 2023 18:12:35,Agnieszka,1
5efde,5efde_session2_lista_naming_trial083_saw.wav,2,a,naming,83,saw,899,correct,NA,Apr 14 2023 18:12:42,Agnieszka,1
5efde,5efde_session2_lista_naming_trial084_ear.wav,2,a,naming,84,ear,705,correct,NA,Apr 14 2023 18:12:54,Agnieszka,1
5efde,5efde_session2_lista_naming_trial085_tambourine.wav,2,a,naming,85,tambourine,1087,correct,NA,Apr 14 2023 18:13:09,Agnieszka,1
5efde,5efde_session2_lista_naming_trial086_ghost.wav,2,a,naming,86,ghost,982,correct,NA,Apr 14 2023 18:13:25,Agnieszka,1
5efde,5efde_session2_lista_naming_trial087_carrot.wav,2,a,naming,87,carrot,925,correct,NA,Apr 14 2023 18:13:38,Agnieszka,1
5efde,5efde_session2_lista_naming_trial088_circle.wav,2,a,naming,88,circle,899,correct,NA,Apr 14 2023 18:13:52,Agnieszka,1
5efde,5efde_session2_lista_naming_trial089_tie.wav,2,a,naming,89,tie,874,correct,NA,Apr 14 2023 18:14:04,Agnieszka,1
5efde,5efde_session2_lista_naming_trial090_dice.wav,2,a,naming,90,dice,1259,correct,NA,Apr 14 2023 18:14:16,Agnieszka,1
5efde,5efde_session2_lista_naming_trial091_mouth.wav,2,a,naming,91,mouth,989,correct,NA,Apr 14 2023 18:14:25,Agnieszka,1
5efde,5efde_session2_lista_naming_trial092_bell.wav,2,a,naming,92,bell,941,correct,NA,Apr 14 2023 18:14:31,Agnieszka,1
5efde,5efde_session2_lista_naming_trial093_wheelbarrow.wav,2,a,naming,93,wheelbarrow,836,correct,NA,Apr 14 2023 18:14:38,Agnieszka,1
5efde,5efde_session2_lista_naming_trial094_camel.wav,2,a,naming,94,camel,1081,correct,NA,Apr 14 2023 18:14:53,Agnieszka,1
5efde,5efde_session2_lista_naming_trial095_basket.wav,2,a,naming,95,basket,1383,correct,NA,Apr 14 2023 18:15:16,Agnieszka,1
5efde,5efde_session2_lista_naming_trial096_robot.wav,2,a,naming,96,robot,1129,correct,NA,Apr 14 2023 18:15:28,Agnieszka,1
5efde,5efde_session2_lista_naming_trial097_elbow.wav,2,a,naming,97,elbow,1052,correct,NA,Apr 14 2023 18:15:39,Agnieszka,1
5efde,5efde_session2_lista_naming_trial098_bib.wav,2,a,naming,98,bib,947,correct,NA,Apr 14 2023 18:15:47,Agnieszka,1
5efde,5efde_session2_lista_naming_trial099_dummy.wav,2,a,naming,99,dummy,1087,correct,NA,Apr 14 2023 18:16:00,Agnieszka,1
5efde,5efde_session2_lista_naming_trial100_tractor.wav,2,a,naming,100,tractor,855,correct,NA,Apr 14 2023 18:16:19,Agnieszka,1
5efde,5efde_session2_lista_naming_trial101_fork.wav,2,a,naming,101,fork,1001,correct,NA,Apr 14 2023 18:16:31,Agnieszka,1
5efde,5efde_session2_lista_naming_trial102_star.wav,2,a,naming,102,star,702,correct,NA,Apr 14 2023 18:16:53,Agnieszka,1
5efde,5efde_session2_lista_naming_trial103_pineapple.wav,2,a,naming,103,pineapple,788,correct,NA,Apr 14 2023 18:17:03,Agnieszka,1
5efde,5efde_session2_lista_naming_trial104_orange.wav,2,a,naming,104,orange,979,correct,NA,Apr 14 2023 18:17:30,Agnieszka,1
5efde,5efde_session2_lista_naming_trial105_limo.wav,2,a,naming,105,limo,1616,correct,NA,Apr 14 2023 18:17:37,Agnieszka,1
5efde,5efde_session2_lista_naming_trial106_fox.wav,2,a,naming,106,fox,1030,correct,NA,Apr 14 2023 18:17:47,Agnieszka,1
5efde,5efde_session2_lista_naming_trial107_castle.wav,2,a,naming,107,castle,969,correct,NA,Apr 14 2023 18:17:59,Agnieszka,1
5efde,5efde_session2_lista_naming_trial108_train.wav,2,a,naming,108,train,817,correct,NA,Apr 14 2023 18:18:06,Agnieszka,1
5efde,5efde_session2_lista_naming_trial109_arrow.wav,2,a,naming,109,arrow,925,correct,NA,Apr 14 2023 18:18:19,Agnieszka,1
5efde,5efde_session2_lista_naming_trial110_bench.wav,2,a,naming,110,bench,747,correct,NA,Apr 14 2023 18:18:26,Agnieszka,1
5efde,5efde_session2_lista_naming_trial111_peg.wav,2,a,naming,111,peg,1154,correct,NA,Apr 14 2023 18:18:48,Agnieszka,1
5efde,5efde_session2_lista_naming_trial112_cherry.wav,2,a,naming,112,cherry,858,correct,NA,Apr 14 2023 18:18:56,Agnieszka,1
5efde,5efde_session2_lista_naming_trial113_bus.wav,2,a,naming,113,bus,1406,correct,NA,Apr 14 2023 18:19:03,Agnieszka,1
5efde,5efde_session2_lista_naming_trial114_comb.wav,2,a,naming,114,comb,883,correct,NA,Apr 14 2023 18:19:15,Agnieszka,1
5efde,5efde_session2_lista_naming_trial115_olive.wav,2,a,naming,115,olive,899,correct,NA,Apr 14 2023 18:19:29,Agnieszka,1
5efde,5efde_session2_lista_naming_trial116_tray.wav,2,a,naming,116,tray,1482,correct,NA,Apr 14 2023 18:19:36,Agnieszka,1
5efde,5efde_session2_lista_naming_trial117_windmill.wav,2,a,naming,117,windmill,918,correct,NA,Apr 14 2023 18:19:43,Agnieszka,1
5efde,5efde_session2_lista_naming_trial118_beak.wav,2,a,naming,118,beak,845,correct,NA,Apr 14 2023 18:19:50,Agnieszka,1
5efde,5efde_session2_lista_naming_trial119_lung.wav,2,a,naming,119,lung,852,correct,NA,Apr 14 2023 18:20:02,Agnieszka,1
5efde,5efde_session2_lista_naming_trial120_drum.wav,2,a,naming,120,drum,1963,correct,NA,Apr 14 2023 18:20:08,Agnieszka,1
5efde,5efde_session2_lista_naming_trial121_sweet.wav,2,a,naming,121,sweet,832,correct,NA,Apr 14 2023 18:20:46,Agnieszka,1
5efde,5efde_session2_lista_naming_trial122_computer.wav,2,a,naming,122,computer,1097,correct,NA,Apr 14 2023 18:20:55,Agnieszka,1
5efde,5efde_session2_lista_naming_trial123_bone.wav,2,a,naming,123,bone,836,correct,NA,Apr 14 2023 18:21:03,Agnieszka,1
5efde,5efde_session2_lista_naming_trial124_island.wav,2,a,naming,124,island,1164,correct,NA,Apr 14 2023 18:21:12,Agnieszka,1
5efde,5efde_session2_lista_naming_trial125_glove.wav,2,a,naming,125,glove,826,correct,NA,Apr 14 2023 18:21:21,Agnieszka,1
5efde,5efde_session2_lista_naming_trial126_puppet.wav,2,a,naming,126,puppet,1154,correct,NA,Apr 14 2023 18:21:27,Agnieszka,1
5efde,5efde_session2_lista_naming_trial127_bear.wav,2,a,naming,127,bear,944,correct,NA,Apr 14 2023 18:21:34,Agnieszka,1
5efde,5efde_session2_lista_naming_trial128_lamp.wav,2,a,naming,128,lamp,1001,correct,NA,Apr 14 2023 18:21:43,Agnieszka,1
5efde,5efde_session2_lista_naming_trial129_butter.wav,2,a,naming,129,butter,998,correct,NA,Apr 14 2023 18:21:50,Agnieszka,1
5efde,5efde_session2_lista_naming_trial130_lighter.wav,2,a,naming,130,lighter,1909,correct,NA,Apr 14 2023 18:22:02,Agnieszka,1
5efde,5efde_session2_lista_naming_trial131_hippo.wav,2,a,naming,131,hippo,998,correct,NA,Apr 14 2023 18:22:16,Agnieszka,1
5efde,5efde_session2_lista_naming_trial132_fridge.wav,2,a,naming,132,fridge,883,correct,NA,Apr 14 2023 18:22:25,Agnieszka,1
5efde,5efde_session2_lista_naming_trial133_pipe.wav,2,a,naming,133,pipe,845,correct,NA,Apr 14 2023 18:22:36,Agnieszka,1
5efde,5efde_session2_lista_naming_trial134_whale.wav,2,a,naming,134,whale,1399,correct,NA,Apr 14 2023 18:22:44,Agnieszka,1
5efde,5efde_session2_lista_naming_trial135_sun.wav,2,a,naming,135,sun,778,correct,NA,Apr 14 2023 18:22:54,Agnieszka,1
5efde,5efde_session2_lista_naming_trial136_kitchen.wav,2,a,naming,136,kitchen,1517,correct,NA,Apr 14 2023 18:23:05,Agnieszka,1
5efde,5efde_session2_lista_naming_trial137_coat.wav,2,a,naming,137,coat,1008,correct,NA,Apr 14 2023 18:23:25,Agnieszka,1
5efde,5efde_session2_lista_naming_trial138_triangle.wav,2,a,naming,138,triangle,868,correct,NA,Apr 14 2023 18:23:34,Agnieszka,1
5efde,5efde_session2_lista_naming_trial139_submarine.wav,2,a,naming,139,submarine,-1,no_resp,NA,Apr 14 2023 18:23:39,Agnieszka,1
5efde,5efde_session2_lista_naming_trial140_caterpillar.wav,2,a,naming,140,caterpillar,826,correct,NA,Apr 14 2023 18:23:49,Agnieszka,1
5efde,5efde_session2_lista_naming_trial141_plumber.wav,2,a,naming,141,plumber,1387,correct,NA,Apr 14 2023 18:24:03,Agnieszka,1
5efde,5efde_session2_lista_naming_trial142_medal.wav,2,a,naming,142,medal,874,correct,NA,Apr 14 2023 18:24:10,Agnieszka,1
5efde,5efde_session2_lista_naming_trial143_shield.wav,2,a,naming,143,shield,992,correct,NA,Apr 14 2023 18:24:17,Agnieszka,1
5efde,5efde_session2_lista_naming_trial144_zip.wav,2,a,naming,144,zip,992,correct,NA,Apr 14 2023 18:24:40,Agnieszka,1
5efde,5efde_session2_lista_naming_trial145_shower.wav,2,a,naming,145,shower,1361,correct,NA,Apr 14 2023 18:24:51,Agnieszka,1
5efde,5efde_session2_lista_naming_trial146_hat.wav,2,a,naming,146,hat,868,correct,NA,Apr 14 2023 18:25:03,Agnieszka,1
5efde,5efde_session2_lista_naming_trial147_battery.wav,2,a,naming,147,battery,982,correct,NA,Apr 14 2023 18:25:11,Agnieszka,1
5efde,5efde_session2_lista_naming_trial148_arm.wav,2,a,naming,148,arm,1154,correct,NA,Apr 14 2023 18:25:20,Agnieszka,1
5efde,5efde_session2_lista_naming_trial149_bottle.wav,2,a,naming,149,bottle,960,correct,NA,Apr 14 2023 18:25:26,Agnieszka,1
5efde,5efde_session2_lista_naming_trial150_flag.wav,2,a,naming,150,flag,1406,correct,NA,Apr 14 2023 18:25:36,Agnieszka,1
