Participant_ID,File_Name,Session,List,Type_Trial,Trial_Nbr,Target,RT,Response_Trial,Comment,Date_Correction,Assessor_Name,Processed
5ebcb,5ebcb_session2_lista_naming_trial001_island.wav,2,a,naming,1,island,1113,correct,NA,Apr 11 2023 19:55:26,Radhika,1
5ebcb,5ebcb_session2_lista_naming_trial002_tunnel.wav,2,a,naming,2,tunnel,1381,correct,NA,Apr 11 2023 19:57:01,Radhika,1
5ebcb,5ebcb_session2_lista_naming_trial003_lawnmower.wav,2,a,naming,3,lawnmower,872,correct,NA,Apr 11 2023 19:57:51,Radhika,1
5ebcb,5ebcb_session2_lista_naming_trial004_tiger.wav,2,a,naming,4,tiger,757,correct,NA,Apr 11 2023 19:58:55,Radhika,1
5ebcb,5ebcb_session2_lista_naming_trial005_flipper.wav,2,a,naming,5,flipper,1902,correct,NA,Apr 11 2023 19:59:58,Radhika,1
5ebcb,5ebcb_session2_lista_naming_trial006_butterfly.wav,2,a,naming,6,butterfly,1361,correct,NA,Apr 11 2023 20:01:28,Radhika,1
5ebcb,5ebcb_session2_lista_naming_trial007_potato.wav,2,a,naming,7,potato,1127,correct,NA,Apr 11 2023 20:02:45,Radhika,1
5ebcb,5ebcb_session2_lista_naming_trial008_tractor.wav,2,a,naming,8,tractor,1413,correct,NA,Apr 11 2023 20:12:30,Radhika,1
5ebcb,5ebcb_session2_lista_naming_trial009_shower.wav,2,a,naming,9,shower,880,correct,NA,Apr 11 2023 20:13:40,Radhika,1
5ebcb,5ebcb_session2_lista_naming_trial010_circle.wav,2,a,naming,10,circle,894,correct,NA,Apr 11 2023 20:14:20,Radhika,1
5ebcb,5ebcb_session2_lista_naming_trial011_fridge.wav,2,a,naming,11,fridge,837,correct,NA,Apr 11 2023 20:16:05,Radhika,1
5ebcb,5ebcb_session2_lista_naming_trial012_lighter.wav,2,a,naming,12,lighter,927,correct,NA,Apr 11 2023 20:18:08,Radhika,1
5ebcb,5ebcb_session2_lista_naming_trial013_hippo.wav,2,a,naming,13,hippo,991,correct,NA,Apr 11 2023 20:19:12,Radhika,1
5ebcb,5ebcb_session2_lista_naming_trial014_tomato.wav,2,a,naming,14,tomato,1065,correct,NA,Apr 11 2023 20:21:03,Radhika,1
5ebcb,5ebcb_session2_lista_naming_trial015_star.wav,2,a,naming,15,star,804,correct,NA,Apr 11 2023 20:21:48,Radhika,1
5ebcb,5ebcb_session2_lista_naming_trial016_snake.wav,2,a,naming,16,snake,779,correct,NA,Apr 11 2023 20:23:36,Radhika,1
5ebcb,5ebcb_session2_lista_naming_trial017_compass.wav,2,a,naming,17,compass,924,correct,NA,Apr 11 2023 20:24:39,Radhika,1
5ebcb,5ebcb_session2_lista_naming_trial018_cherry.wav,2,a,naming,18,cherry,1123,correct,NA,Apr 11 2023 20:25:48,Radhika,1
5ebcb,5ebcb_session2_lista_naming_trial019_wall.wav,2,a,naming,19,wall,-1,correct,NA,Apr 11 2023 20:26:34,Radhika,1
5ebcb,5ebcb_session2_lista_naming_trial020_cork.wav,2,a,naming,20,cork,1410,correct,NA,Apr 11 2023 20:27:58,Radhika,1
5ebcb,5ebcb_session2_lista_naming_trial021_tie.wav,2,a,naming,21,tie,1566,correct,NA,Apr 11 2023 20:28:57,Radhika,1
5ebcb,5ebcb_session2_lista_naming_trial022_ghost.wav,2,a,naming,22,ghost,1115,correct,NA,Apr 11 2023 20:33:14,Radhika,1
5ebcb,5ebcb_session2_lista_naming_trial023_drum.wav,2,a,naming,23,drum,1527,correct,NA,Apr 11 2023 20:34:57,Radhika,1
5ebcb,5ebcb_session2_lista_naming_trial024_fireplace.wav,2,a,naming,24,fireplace,1142,correct,NA,Apr 11 2023 20:36:32,Radhika,1
5ebcb,5ebcb_session2_lista_naming_trial025_lung.wav,2,a,naming,25,lung,1664,correct,NA,Apr 11 2023 20:37:38,Radhika,1
5ebcb,5ebcb_session2_lista_naming_trial026_pear.wav,2,a,naming,26,pear,921,correct,NA,Apr 11 2023 20:38:38,Radhika,1
5ebcb,5ebcb_session2_lista_naming_trial027_robot.wav,2,a,naming,27,robot,974,correct,NA,Apr 11 2023 20:39:19,Radhika,1
5ebcb,5ebcb_session2_lista_naming_trial028_limo.wav,2,a,naming,28,limo,868,correct,NA,Apr 11 2023 20:39:50,Radhika,1
5ebcb,5ebcb_session2_lista_naming_trial029_onion.wav,2,a,naming,29,onion,1002,correct,NA,Apr 11 2023 20:40:35,Radhika,1
5ebcb,5ebcb_session2_lista_naming_trial030_computer.wav,2,a,naming,30,computer,911,correct,NA,Apr 11 2023 20:42:04,Radhika,1
5ebcb,5ebcb_session2_lista_naming_trial031_tray.wav,2,a,naming,31,tray,2280,correct,NA,Apr 11 2023 20:42:49,Radhika,1
5ebcb,5ebcb_session2_lista_naming_trial032_rhino.wav,2,a,naming,32,rhino,1360,correct,NA,Apr 11 2023 20:44:02,Radhika,1
5ebcb,5ebcb_session2_lista_naming_trial033_castle.wav,2,a,naming,33,castle,1315,correct,NA,Apr 11 2023 20:44:58,Radhika,1
5ebcb,5ebcb_session2_lista_naming_trial034_wing.wav,2,a,naming,34,wing,1058,correct,NA,Apr 11 2023 20:45:39,Radhika,1
5ebcb,5ebcb_session2_lista_naming_trial035_sweet.wav,2,a,naming,35,sweet,1200,correct,NA,Apr 11 2023 20:46:31,Radhika,1
5ebcb,5ebcb_session2_lista_naming_trial036_drawer.wav,2,a,naming,36,drawer,1150,correct,NA,Apr 11 2023 20:56:06,Radhika,1
5ebcb,5ebcb_session2_lista_naming_trial037_helicopter.wav,2,a,naming,37,helicopter,984,correct,NA,Apr 11 2023 20:56:58,Radhika,1
5ebcb,5ebcb_session2_lista_naming_trial038_apple.wav,2,a,naming,38,apple,1930,correct,NA,Apr 11 2023 20:58:05,Radhika,1
5ebcb,5ebcb_session2_lista_naming_trial039_kitchen.wav,2,a,naming,39,kitchen,1053,correct,NA,Apr 11 2023 20:59:12,Radhika,1
5ebcb,5ebcb_session2_lista_naming_trial040_fence.wav,2,a,naming,40,fence,1204,correct,NA,Apr 11 2023 21:00:03,Radhika,1
5ebcb,5ebcb_session2_lista_naming_trial041_bus.wav,2,a,naming,41,bus,1233,correct,NA,Apr 11 2023 21:06:44,Radhika,1
5ebcb,5ebcb_session2_lista_naming_trial042_tongue.wav,2,a,naming,42,tongue,1526,correct,NA,Apr 11 2023 21:12:53,Radhika,1
5ebcb,5ebcb_session2_lista_naming_trial043_pineapple.wav,2,a,naming,43,pineapple,871,correct,NA,Apr 11 2023 21:13:44,Radhika,1
5ebcb,5ebcb_session2_lista_naming_trial044_jellyfish.wav,2,a,naming,44,jellyfish,1190,correct,NA,Apr 11 2023 21:14:29,Radhika,1
5ebcb,5ebcb_session2_lista_naming_trial045_sword.wav,2,a,naming,45,sword,1421,correct,NA,Apr 11 2023 21:15:14,Radhika,1
5ebcb,5ebcb_session2_lista_naming_trial046_butter.wav,2,a,naming,46,butter,1547,correct,NA,Apr 11 2023 21:15:53,Radhika,1
5ebcb,5ebcb_session2_lista_naming_trial047_kite.wav,2,a,naming,47,kite,1571,correct,NA,Apr 11 2023 21:16:31,Radhika,1
5ebcb,5ebcb_session2_lista_naming_trial048_carrot.wav,2,a,naming,48,carrot,1037,correct,NA,Apr 11 2023 21:17:23,Radhika,1
5ebcb,5ebcb_session2_lista_naming_trial049_tap.wav,2,a,naming,49,tap,-1,wrong_word,NA,Apr 11 2023 21:17:37,Radhika,1
5ebcb,5ebcb_session2_lista_naming_trial050_doctor.wav,2,a,naming,50,doctor,787,correct,NA,Apr 11 2023 21:18:18,Radhika,1
5ebcb,5ebcb_session2_lista_naming_trial051_candle.wav,2,a,naming,51,candle,1064,correct,NA,Apr 11 2023 21:18:54,Radhika,1
5ebcb,5ebcb_session2_lista_naming_trial052_bench.wav,2,a,naming,52,bench,1120,correct,NA,Apr 11 2023 21:24:28,Radhika,1
5ebcb,5ebcb_session2_lista_naming_trial053_suit.wav,2,a,naming,53,suit,806,correct,NA,Apr 11 2023 21:26:32,Radhika,1
5ebcb,5ebcb_session2_lista_naming_trial054_skirt.wav,2,a,naming,54,skirt,1244,correct,NA,Apr 11 2023 21:27:37,Radhika,1
5ebcb,5ebcb_session2_lista_naming_trial055_hat.wav,2,a,naming,55,hat,822,correct,NA,Apr 11 2023 21:28:18,Radhika,1
5ebcb,5ebcb_session2_lista_naming_trial056_lighthouse.wav,2,a,naming,56,lighthouse,1160,correct,NA,Apr 11 2023 21:29:24,Radhika,1
5ebcb,5ebcb_session2_lista_naming_trial057_comb.wav,2,a,naming,57,comb,1094,correct,NA,Apr 11 2023 21:30:53,Radhika,1
5ebcb,5ebcb_session2_lista_naming_trial058_lamp.wav,2,a,naming,58,lamp,812,correct,NA,Apr 11 2023 21:31:38,Radhika,1
5ebcb,5ebcb_session2_lista_naming_trial059_scissors.wav,2,a,naming,59,scissors,1282,correct,NA,Apr 11 2023 21:32:24,Radhika,1
5ebcb,5ebcb_session2_lista_naming_trial060_pocket.wav,2,a,naming,60,pocket,1341,correct,NA,Apr 11 2023 21:33:14,Radhika,1
5ebcb,5ebcb_session2_lista_naming_trial061_wheelbarrow.wav,2,a,naming,61,wheelbarrow,939,correct,NA,Apr 11 2023 21:36:03,Radhika,1
5ebcb,5ebcb_session2_lista_naming_trial062_soap.wav,2,a,naming,62,soap,1730,correct,NA,Apr 11 2023 21:36:36,Radhika,1
5ebcb,5ebcb_session2_lista_naming_trial063_ear.wav,2,a,naming,63,ear,866,correct,NA,Apr 11 2023 21:38:06,Radhika,1
5ebcb,5ebcb_session2_lista_naming_trial064_wave.wav,2,a,naming,64,wave,1074,correct,NA,Apr 11 2023 21:39:10,Radhika,1
5ebcb,5ebcb_session2_lista_naming_trial065_submarine.wav,2,a,naming,65,submarine,971,correct,NA,Apr 11 2023 21:40:41,Radhika,1
5ebcb,5ebcb_session2_lista_naming_trial066_bottle.wav,2,a,naming,66,bottle,921,correct,NA,Apr 11 2023 21:42:00,Radhika,1
5ebcb,5ebcb_session2_lista_naming_trial067_zip.wav,2,a,naming,67,zip,-1,wrong_word,NA,Apr 11 2023 21:42:16,Radhika,1
5ebcb,5ebcb_session2_lista_naming_trial068_mountain.wav,2,a,naming,68,mountain,1221,correct,NA,Apr 11 2023 21:42:51,Radhika,1
5ebcb,5ebcb_session2_lista_naming_trial069_glove.wav,2,a,naming,69,glove,910,correct,NA,Apr 11 2023 21:43:52,Radhika,1
5ebcb,5ebcb_session2_lista_naming_trial070_plumber.wav,2,a,naming,70,plumber,1316,correct,NA,Apr 11 2023 21:44:33,Radhika,1
5ebcb,5ebcb_session2_lista_naming_trial071_judge.wav,2,a,naming,71,judge,1143,correct,NA,Apr 11 2023 21:45:19,Radhika,1
5ebcb,5ebcb_session2_lista_naming_trial072_bike.wav,2,a,naming,72,bike,880,correct,NA,Apr 11 2023 21:46:17,Radhika,1
5ebcb,5ebcb_session2_lista_naming_trial073_rabbit.wav,2,a,naming,73,rabbit,979,correct,NA,Apr 11 2023 21:46:55,Radhika,1
5ebcb,5ebcb_session2_lista_naming_trial074_thumb.wav,2,a,naming,74,thumb,1171,correct,NA,Apr 11 2023 21:47:40,Radhika,1
5ebcb,5ebcb_session2_lista_naming_trial075_doughnut.wav,2,a,naming,75,doughnut,907,correct,NA,Apr 11 2023 21:48:44,Radhika,1
5ebcb,5ebcb_session2_lista_naming_trial076_koala.wav,2,a,naming,76,koala,1077,correct,NA,Apr 13 2023 12:00:55,Radhika,1
5ebcb,5ebcb_session2_lista_naming_trial077_key.wav,2,a,naming,77,key,926,correct,NA,Apr 13 2023 12:02:09,Radhika,1
5ebcb,5ebcb_session2_lista_naming_trial078_bone.wav,2,a,naming,78,bone,1247,correct,NA,Apr 13 2023 12:14:30,Radhika,1
5ebcb,5ebcb_session2_lista_naming_trial079_crab.wav,2,a,naming,79,crab,907,correct,NA,Apr 13 2023 12:16:11,Radhika,1
5ebcb,5ebcb_session2_lista_naming_trial080_bracelet.wav,2,a,naming,80,bracelet,1254,correct,NA,Apr 13 2023 12:18:17,Radhika,1
5ebcb,5ebcb_session2_lista_naming_trial081_flower.wav,2,a,naming,81,flower,1384,correct,NA,Apr 14 2023 15:04:22,Radhika,1
5ebcb,5ebcb_session2_lista_naming_trial082_tree.wav,2,a,naming,82,tree,1100,correct,NA,Apr 14 2023 15:05:58,Radhika,1
5ebcb,5ebcb_session2_lista_naming_trial083_shoe.wav,2,a,naming,83,shoe,866,correct,NA,Apr 14 2023 15:07:09,Radhika,1
5ebcb,5ebcb_session2_lista_naming_trial084_swan.wav,2,a,naming,84,swan,792,correct,NA,Apr 14 2023 15:08:09,Radhika,1
5ebcb,5ebcb_session2_lista_naming_trial085_goat.wav,2,a,naming,85,goat,1037,correct,NA,Apr 14 2023 15:09:14,Radhika,1
5ebcb,5ebcb_session2_lista_naming_trial086_knife.wav,2,a,naming,86,knife,861,correct,NA,Apr 14 2023 15:09:47,Radhika,1
5ebcb,5ebcb_session2_lista_naming_trial087_magnet.wav,2,a,naming,87,magnet,853,correct,NA,Apr 14 2023 15:10:08,Radhika,1
5ebcb,5ebcb_session2_lista_naming_trial088_queen.wav,2,a,naming,88,queen,962,correct,NA,Apr 14 2023 15:11:00,Radhika,1
5ebcb,5ebcb_session2_lista_naming_trial089_bear.wav,2,a,naming,89,bear,1029,correct,NA,Apr 14 2023 15:11:45,Radhika,1
5ebcb,5ebcb_session2_lista_naming_trial090_coat.wav,2,a,naming,90,coat,1955,correct,NA,Apr 14 2023 15:12:49,Radhika,1
5ebcb,5ebcb_session2_lista_naming_trial091_map.wav,2,a,naming,91,map,1316,correct,NA,Apr 14 2023 15:13:21,Radhika,1
5ebcb,5ebcb_session2_lista_naming_trial092_triangle.wav,2,a,naming,92,triangle,889,correct,NA,Apr 14 2023 15:14:17,Radhika,1
5ebcb,5ebcb_session2_lista_naming_trial093_bullet.wav,2,a,naming,93,bullet,923,correct,NA,Apr 14 2023 15:15:00,Radhika,1
5ebcb,5ebcb_session2_lista_naming_trial094_zebra.wav,2,a,naming,94,zebra,1289,correct,NA,Apr 14 2023 15:21:52,Radhika,1
5ebcb,5ebcb_session2_lista_naming_trial095_book.wav,2,a,naming,95,book,1230,correct,NA,Apr 14 2023 15:22:54,Radhika,1
5ebcb,5ebcb_session2_lista_naming_trial096_pepper.wav,2,a,naming,96,pepper,-1,wrong_word,NA,Apr 14 2023 15:23:19,Radhika,1
5ebcb,5ebcb_session2_lista_naming_trial097_whale.wav,2,a,naming,97,whale,1535,correct,NA,Apr 14 2023 15:23:45,Radhika,1
5ebcb,5ebcb_session2_lista_naming_trial098_squirrel.wav,2,a,naming,98,squirrel,1159,correct,NA,Apr 14 2023 15:24:31,Radhika,1
5ebcb,5ebcb_session2_lista_naming_trial099_rose.wav,2,a,naming,99,rose,1230,correct,NA,Apr 14 2023 15:25:00,Radhika,1
5ebcb,5ebcb_session2_lista_naming_trial100_nest.wav,2,a,naming,100,nest,1245,correct,NA,Apr 14 2023 15:25:50,Radhika,1
5ebcb,5ebcb_session2_lista_naming_trial101_mermaid.wav,2,a,naming,101,mermaid,928,correct,NA,Apr 14 2023 15:26:20,Radhika,1
5ebcb,5ebcb_session2_lista_naming_trial102_bull.wav,2,a,naming,102,bull,2143,correct,NA,Apr 14 2023 15:27:38,Radhika,1
5ebcb,5ebcb_session2_lista_naming_trial103_teacher.wav,2,a,naming,103,teacher,961,correct,NA,Apr 14 2023 15:28:37,Radhika,1
5ebcb,5ebcb_session2_lista_naming_trial104_clown.wav,2,a,naming,104,clown,858,correct,NA,Apr 14 2023 15:29:27,Radhika,1
5ebcb,5ebcb_session2_lista_naming_trial105_fork.wav,2,a,naming,105,fork,920,correct,NA,Apr 14 2023 15:30:02,Radhika,1
5ebcb,5ebcb_session2_lista_naming_trial106_dummy.wav,2,a,naming,106,dummy,1024,correct,NA,Apr 14 2023 15:30:55,Radhika,1
5ebcb,5ebcb_session2_lista_naming_trial107_olive.wav,2,a,naming,107,olive,895,correct,NA,Apr 14 2023 15:31:22,Radhika,1
5ebcb,5ebcb_session2_lista_naming_trial108_saw.wav,2,a,naming,108,saw,1028,correct,NA,Apr 14 2023 15:32:00,Radhika,1
5ebcb,5ebcb_session2_lista_naming_trial109_tattoo.wav,2,a,naming,109,tattoo,-1,wrong_word,NA,Apr 14 2023 15:32:17,Radhika,1
5ebcb,5ebcb_session2_lista_naming_trial110_sausage.wav,2,a,naming,110,sausage,-1,wrong_word,NA,Apr 14 2023 15:32:26,Radhika,1
5ebcb,5ebcb_session2_lista_naming_trial111_mouth.wav,2,a,naming,111,mouth,882,correct,NA,Apr 14 2023 15:32:54,Radhika,1
5ebcb,5ebcb_session2_lista_naming_trial112_bell.wav,2,a,naming,112,bell,1209,correct,NA,Apr 14 2023 15:33:59,Radhika,1
5ebcb,5ebcb_session2_lista_naming_trial113_dice.wav,2,a,naming,113,dice,832,correct,NA,Apr 14 2023 15:48:15,Radhika,1
5ebcb,5ebcb_session2_lista_naming_trial114_bib.wav,2,a,naming,114,bib,1273,correct,NA,Apr 14 2023 15:49:01,Radhika,1
5ebcb,5ebcb_session2_lista_naming_trial115_medal.wav,2,a,naming,115,medal,927,correct,NA,Apr 14 2023 15:49:43,Radhika,1
5ebcb,5ebcb_session2_lista_naming_trial116_boxer.wav,2,a,naming,116,boxer,938,correct,NA,Apr 14 2023 15:50:13,Radhika,1
5ebcb,5ebcb_session2_lista_naming_trial117_flag.wav,2,a,naming,117,flag,849,correct,NA,Apr 14 2023 15:50:58,Radhika,1
5ebcb,5ebcb_session2_lista_naming_trial118_tambourine.wav,2,a,naming,118,tambourine,1108,correct,NA,Apr 14 2023 15:52:50,Radhika,1
5ebcb,5ebcb_session2_lista_naming_trial119_arrow.wav,2,a,naming,119,arrow,908,correct,NA,Apr 14 2023 15:53:21,Radhika,1
5ebcb,5ebcb_session2_lista_naming_trial120_orange.wav,2,a,naming,120,orange,1283,correct,NA,Apr 14 2023 15:54:11,Radhika,1
5ebcb,5ebcb_session2_lista_naming_trial121_rocket.wav,2,a,naming,121,rocket,964,correct,NA,Apr 14 2023 15:55:02,Radhika,1
5ebcb,5ebcb_session2_lista_naming_trial122_elbow.wav,2,a,naming,122,elbow,1100,correct,NA,Apr 14 2023 15:55:46,Radhika,1
5ebcb,5ebcb_session2_lista_naming_trial123_pipe.wav,2,a,naming,123,pipe,901,correct,NA,Apr 14 2023 15:56:57,Radhika,1
5ebcb,5ebcb_session2_lista_naming_trial124_suitcase.wav,2,a,naming,124,suitcase,910,correct,NA,Apr 14 2023 15:57:17,Radhika,1
5ebcb,5ebcb_session2_lista_naming_trial125_shield.wav,2,a,naming,125,shield,782,correct,NA,Apr 14 2023 15:57:40,Radhika,1
5ebcb,5ebcb_session2_lista_naming_trial126_kangaroo.wav,2,a,naming,126,kangaroo,875,correct,NA,Apr 14 2023 15:58:22,Radhika,1
5ebcb,5ebcb_session2_lista_naming_trial127_donkey.wav,2,a,naming,127,donkey,1236,correct,NA,Apr 14 2023 16:06:48,Radhika,1
5ebcb,5ebcb_session2_lista_naming_trial128_heel.wav,2,a,naming,128,heel,781,correct,NA,Apr 14 2023 16:07:53,Radhika,1
5ebcb,5ebcb_session2_lista_naming_trial129_ruler.wav,2,a,naming,129,ruler,1244,correct,NA,Apr 14 2023 16:08:31,Radhika,1
5ebcb,5ebcb_session2_lista_naming_trial130_train.wav,2,a,naming,130,train,1029,correct,NA,Apr 14 2023 16:09:12,Radhika,1
5ebcb,5ebcb_session2_lista_naming_trial131_kiwi.wav,2,a,naming,131,kiwi,-1,wrong_word,NA,Apr 14 2023 16:09:24,Radhika,1
5ebcb,5ebcb_session2_lista_naming_trial132_dress.wav,2,a,naming,132,dress,1119,correct,NA,Apr 14 2023 16:10:18,Radhika,1
5ebcb,5ebcb_session2_lista_naming_trial133_owl.wav,2,a,naming,133,owl,1043,correct,NA,Apr 14 2023 16:10:58,Radhika,1
5ebcb,5ebcb_session2_lista_naming_trial134_fox.wav,2,a,naming,134,fox,892,correct,NA,Apr 14 2023 16:11:51,Radhika,1
5ebcb,5ebcb_session2_lista_naming_trial135_fairy.wav,2,a,naming,135,fairy,-1,wrong_word,NA,Apr 14 2023 16:12:02,Radhika,1
5ebcb,5ebcb_session2_lista_naming_trial136_pencil.wav,2,a,naming,136,pencil,1439,correct,NA,Apr 14 2023 16:12:46,Radhika,1
5ebcb,5ebcb_session2_lista_naming_trial137_caterpillar.wav,2,a,naming,137,caterpillar,974,correct,NA,Apr 14 2023 16:13:45,Radhika,1
5ebcb,5ebcb_session2_lista_naming_trial138_gym.wav,2,a,naming,138,gym,1187,correct,NA,Apr 14 2023 16:14:12,Radhika,1
5ebcb,5ebcb_session2_lista_naming_trial139_basket.wav,2,a,naming,139,basket,1257,correct,NA,Apr 14 2023 16:14:57,Radhika,1
5ebcb,5ebcb_session2_lista_naming_trial140_peg.wav,2,a,naming,140,peg,1018,correct,NA,Apr 14 2023 16:15:28,Radhika,1
5ebcb,5ebcb_session2_lista_naming_trial141_windmill.wav,2,a,naming,141,windmill,930,correct,NA,Apr 14 2023 16:15:47,Radhika,1
5ebcb,5ebcb_session2_lista_naming_trial142_avocado.wav,2,a,naming,142,avocado,1466,correct,NA,Apr 14 2023 16:16:20,Radhika,1
5ebcb,5ebcb_session2_lista_naming_trial143_net.wav,2,a,naming,143,net,1478,correct,NA,Apr 14 2023 16:17:06,Radhika,1
5ebcb,5ebcb_session2_lista_naming_trial144_camel.wav,2,a,naming,144,camel,1235,correct,NA,Apr 14 2023 16:17:53,Radhika,1
5ebcb,5ebcb_session2_lista_naming_trial145_arm.wav,2,a,naming,145,arm,1233,correct,NA,Apr 14 2023 16:18:44,Radhika,1
5ebcb,5ebcb_session2_lista_naming_trial146_curtain.wav,2,a,naming,146,curtain,1701,correct,NA,Apr 14 2023 16:19:24,Radhika,1
5ebcb,5ebcb_session2_lista_naming_trial147_beak.wav,2,a,naming,147,beak,1123,correct,NA,Apr 14 2023 16:20:28,Radhika,1
5ebcb,5ebcb_session2_lista_naming_trial148_sun.wav,2,a,naming,148,sun,979,correct,NA,Apr 14 2023 16:21:20,Radhika,1
5ebcb,5ebcb_session2_lista_naming_trial149_battery.wav,2,a,naming,149,battery,1219,correct,NA,Apr 14 2023 16:21:53,Radhika,1
5ebcb,5ebcb_session2_lista_naming_trial150_puppet.wav,2,a,naming,150,puppet,1240,correct,NA,Apr 14 2023 16:22:59,Radhika,1
