Participant_ID,File_Name,Session,List,Type_Trial,Trial_Nbr,Target,RT,Response_Trial,Comment,Date_Correction,Assessor_Name,Processed
5eff6,5eff6_session2_lista_naming_trial001_pineapple.wav,2,a,naming,1,pineapple,654,correct,NA,Apr 15 2023 11:00:20,Agnieszka,1
5eff6,5eff6_session2_lista_naming_trial002_drawer.wav,2,a,naming,2,drawer,804,correct,NA,Apr 15 2023 11:00:27,Agnieszka,1
5eff6,5eff6_session2_lista_naming_trial003_onion.wav,2,a,naming,3,onion,718,correct,NA,Apr 15 2023 11:00:39,Agnieszka,1
5eff6,5eff6_session2_lista_naming_trial004_mermaid.wav,2,a,naming,4,mermaid,788,correct,NA,Apr 15 2023 11:00:45,Agnieszka,1
5eff6,5eff6_session2_lista_naming_trial005_fork.wav,2,a,naming,5,fork,673,correct,NA,Apr 15 2023 11:00:53,Agnieszka,1
5eff6,5eff6_session2_lista_naming_trial006_triangle.wav,2,a,naming,6,triangle,619,correct,NA,Apr 15 2023 11:01:03,Agnieszka,1
5eff6,5eff6_session2_lista_naming_trial007_kiwi.wav,2,a,naming,7,kiwi,648,correct,NA,Apr 15 2023 11:01:12,Agnieszka,1
5eff6,5eff6_session2_lista_naming_trial008_bull.wav,2,a,naming,8,bull,1040,correct,NA,Apr 15 2023 11:01:18,Agnieszka,1
5eff6,5eff6_session2_lista_naming_trial009_whale.wav,2,a,naming,9,whale,711,correct,NA,Apr 15 2023 11:01:26,Agnieszka,1
5eff6,5eff6_session2_lista_naming_trial010_dress.wav,2,a,naming,10,dress,848,correct,NA,Apr 15 2023 11:01:36,Agnieszka,1
5eff6,5eff6_session2_lista_naming_trial011_drum.wav,2,a,naming,11,drum,788,correct,NA,Apr 15 2023 11:01:44,Agnieszka,1
5eff6,5eff6_session2_lista_naming_trial012_snake.wav,2,a,naming,12,snake,619,correct,NA,Apr 15 2023 11:01:50,Agnieszka,1
5eff6,5eff6_session2_lista_naming_trial013_island.wav,2,a,naming,13,island,941,correct,NA,Apr 15 2023 11:04:14,Agnieszka,1
5eff6,5eff6_session2_lista_naming_trial014_crab.wav,2,a,naming,14,crab,692,correct,NA,Apr 15 2023 11:04:31,Agnieszka,1
5eff6,5eff6_session2_lista_naming_trial015_scissors.wav,2,a,naming,15,scissors,791,correct,NA,Apr 15 2023 11:04:40,Agnieszka,1
5eff6,5eff6_session2_lista_naming_trial016_arrow.wav,2,a,naming,16,arrow,782,correct,NA,Apr 15 2023 11:04:49,Agnieszka,1
5eff6,5eff6_session2_lista_naming_trial017_coat.wav,2,a,naming,17,coat,829,correct,NA,Apr 15 2023 11:04:57,Agnieszka,1
5eff6,5eff6_session2_lista_naming_trial018_medal.wav,2,a,naming,18,medal,676,correct,NA,Apr 15 2023 11:05:04,Agnieszka,1
5eff6,5eff6_session2_lista_naming_trial019_beak.wav,2,a,naming,19,beak,855,correct,NA,Apr 15 2023 11:05:11,Agnieszka,1
5eff6,5eff6_session2_lista_naming_trial020_knife.wav,2,a,naming,20,knife,670,correct,NA,Apr 15 2023 11:05:18,Agnieszka,1
5eff6,5eff6_session2_lista_naming_trial021_fridge.wav,2,a,naming,21,fridge,-1,wrong_word,NA,Apr 15 2023 11:05:24,Agnieszka,1
5eff6,5eff6_session2_lista_naming_trial022_donkey.wav,2,a,naming,22,donkey,750,correct,NA,Apr 15 2023 11:05:32,Agnieszka,1
5eff6,5eff6_session2_lista_naming_trial023_dice.wav,2,a,naming,23,dice,762,correct,NA,Apr 15 2023 11:05:38,Agnieszka,1
5eff6,5eff6_session2_lista_naming_trial024_pear.wav,2,a,naming,24,pear,778,correct,NA,Apr 15 2023 11:05:45,Agnieszka,1
5eff6,5eff6_session2_lista_naming_trial025_cherry.wav,2,a,naming,25,cherry,842,correct,NA,Apr 15 2023 11:05:52,Agnieszka,1
5eff6,5eff6_session2_lista_naming_trial026_comb.wav,2,a,naming,26,comb,832,correct,NA,Apr 15 2023 11:06:00,Agnieszka,1
5eff6,5eff6_session2_lista_naming_trial027_tray.wav,2,a,naming,27,tray,724,correct,NA,Apr 15 2023 11:06:07,Agnieszka,1
5eff6,5eff6_session2_lista_naming_trial028_circle.wav,2,a,naming,28,circle,721,correct,NA,Apr 15 2023 11:06:14,Agnieszka,1
5eff6,5eff6_session2_lista_naming_trial029_rocket.wav,2,a,naming,29,rocket,801,correct,NA,Apr 15 2023 11:06:21,Agnieszka,1
5eff6,5eff6_session2_lista_naming_trial030_koala.wav,2,a,naming,30,koala,772,correct,NA,Apr 15 2023 11:06:31,Agnieszka,1
5eff6,5eff6_session2_lista_naming_trial031_tie.wav,2,a,naming,31,tie,794,correct,NA,Apr 15 2023 11:06:39,Agnieszka,1
5eff6,5eff6_session2_lista_naming_trial032_owl.wav,2,a,naming,32,owl,845,correct,NA,Apr 15 2023 11:06:48,Agnieszka,1
5eff6,5eff6_session2_lista_naming_trial033_magnet.wav,2,a,naming,33,magnet,832,correct,NA,Apr 15 2023 11:06:58,Agnieszka,1
5eff6,5eff6_session2_lista_naming_trial034_helicopter.wav,2,a,naming,34,helicopter,750,correct,NA,Apr 15 2023 11:07:06,Agnieszka,1
5eff6,5eff6_session2_lista_naming_trial035_ear.wav,2,a,naming,35,ear,667,correct,NA,Apr 15 2023 11:07:13,Agnieszka,1
5eff6,5eff6_session2_lista_naming_trial036_pocket.wav,2,a,naming,36,pocket,995,correct,NA,Apr 15 2023 11:07:28,Agnieszka,1
5eff6,5eff6_session2_lista_naming_trial037_bone.wav,2,a,naming,37,bone,759,correct,NA,Apr 15 2023 11:21:29,Agnieszka,1
5eff6,5eff6_session2_lista_naming_trial038_basket.wav,2,a,naming,38,basket,778,correct,NA,Apr 15 2023 11:21:37,Agnieszka,1
5eff6,5eff6_session2_lista_naming_trial039_bear.wav,2,a,naming,39,bear,782,correct,NA,Apr 15 2023 11:21:44,Agnieszka,1
5eff6,5eff6_session2_lista_naming_trial040_queen.wav,2,a,naming,40,queen,877,correct,NA,Apr 15 2023 11:21:52,Agnieszka,1
5eff6,5eff6_session2_lista_naming_trial041_lighthouse.wav,2,a,naming,41,lighthouse,915,correct,NA,Apr 15 2023 11:22:00,Agnieszka,1
5eff6,5eff6_session2_lista_naming_trial042_bottle.wav,2,a,naming,42,bottle,775,correct,NA,Apr 15 2023 11:22:06,Agnieszka,1
5eff6,5eff6_session2_lista_naming_trial043_avocado.wav,2,a,naming,43,avocado,836,correct,NA,Apr 15 2023 11:22:13,Agnieszka,1
5eff6,5eff6_session2_lista_naming_trial044_doughnut.wav,2,a,naming,44,doughnut,874,correct,NA,Apr 15 2023 11:22:20,Agnieszka,1
5eff6,5eff6_session2_lista_naming_trial045_tap.wav,2,a,naming,45,tap,711,correct,NA,Apr 15 2023 11:22:28,Agnieszka,1
5eff6,5eff6_session2_lista_naming_trial046_butterfly.wav,2,a,naming,46,butterfly,661,correct,NA,Apr 15 2023 11:22:36,Agnieszka,1
5eff6,5eff6_session2_lista_naming_trial047_tomato.wav,2,a,naming,47,tomato,648,correct,NA,Apr 15 2023 11:22:45,Agnieszka,1
5eff6,5eff6_session2_lista_naming_trial048_nest.wav,2,a,naming,48,nest,804,correct,NA,Apr 15 2023 11:22:52,Agnieszka,1
5eff6,5eff6_session2_lista_naming_trial049_skirt.wav,2,a,naming,49,skirt,-1,disfluency,NA,Apr 15 2023 11:23:00,Agnieszka,1
5eff6,5eff6_session2_lista_naming_trial050_arm.wav,2,a,naming,50,arm,1438,correct,NA,Apr 15 2023 11:23:06,Agnieszka,1
5eff6,5eff6_session2_lista_naming_trial051_kangaroo.wav,2,a,naming,51,kangaroo,670,correct,NA,Apr 15 2023 11:23:12,Agnieszka,1
5eff6,5eff6_session2_lista_naming_trial052_shield.wav,2,a,naming,52,shield,931,correct,NA,Apr 15 2023 11:23:20,Agnieszka,1
5eff6,5eff6_session2_lista_naming_trial053_battery.wav,2,a,naming,53,battery,715,correct,NA,Apr 15 2023 11:23:26,Agnieszka,1
5eff6,5eff6_session2_lista_naming_trial054_suit.wav,2,a,naming,54,suit,782,correct,NA,Apr 15 2023 11:23:33,Agnieszka,1
5eff6,5eff6_session2_lista_naming_trial055_lamp.wav,2,a,naming,55,lamp,797,correct,NA,Apr 15 2023 11:23:42,Agnieszka,1
5eff6,5eff6_session2_lista_naming_trial056_goat.wav,2,a,naming,56,goat,711,correct,NA,Apr 15 2023 11:23:49,Agnieszka,1
5eff6,5eff6_session2_lista_naming_trial057_clown.wav,2,a,naming,57,clown,858,correct,NA,Apr 15 2023 11:23:59,Agnieszka,1
5eff6,5eff6_session2_lista_naming_trial058_gym.wav,2,a,naming,58,gym,877,correct,NA,Apr 15 2023 11:24:13,Agnieszka,1
5eff6,5eff6_session2_lista_naming_trial059_boxer.wav,2,a,naming,59,boxer,1278,correct,NA,Apr 15 2023 11:24:24,Agnieszka,1
5eff6,5eff6_session2_lista_naming_trial060_rabbit.wav,2,a,naming,60,rabbit,791,correct,NA,Apr 15 2023 11:24:36,Agnieszka,1
5eff6,5eff6_session2_lista_naming_trial061_pencil.wav,2,a,naming,61,pencil,657,correct,NA,Apr 15 2023 11:24:43,Agnieszka,1
5eff6,5eff6_session2_lista_naming_trial062_jellyfish.wav,2,a,naming,62,jellyfish,848,correct,NA,Apr 15 2023 11:24:50,Agnieszka,1
5eff6,5eff6_session2_lista_naming_trial063_ghost.wav,2,a,naming,63,ghost,715,correct,NA,Apr 15 2023 11:24:59,Agnieszka,1
5eff6,5eff6_session2_lista_naming_trial064_pipe.wav,2,a,naming,64,pipe,807,correct,NA,Apr 15 2023 11:25:08,Agnieszka,1
5eff6,5eff6_session2_lista_naming_trial065_pepper.wav,2,a,naming,65,pepper,724,correct,NA,Apr 15 2023 11:25:15,Agnieszka,1
5eff6,5eff6_session2_lista_naming_trial066_glove.wav,2,a,naming,66,glove,791,correct,NA,Apr 15 2023 11:25:23,Agnieszka,1
5eff6,5eff6_session2_lista_naming_trial067_thumb.wav,2,a,naming,67,thumb,657,correct,NA,Apr 15 2023 11:25:38,Agnieszka,1
5eff6,5eff6_session2_lista_naming_trial068_hat.wav,2,a,naming,68,hat,683,correct,NA,Apr 15 2023 11:25:45,Agnieszka,1
5eff6,5eff6_session2_lista_naming_trial069_bell.wav,2,a,naming,69,bell,1247,correct,NA,Apr 15 2023 11:25:52,Agnieszka,1
5eff6,5eff6_session2_lista_naming_trial070_heel.wav,2,a,naming,70,heel,775,correct,NA,Apr 15 2023 11:25:58,Agnieszka,1
5eff6,5eff6_session2_lista_naming_trial071_castle.wav,2,a,naming,71,castle,807,correct,NA,Apr 15 2023 11:26:05,Agnieszka,1
5eff6,5eff6_session2_lista_naming_trial072_rose.wav,2,a,naming,72,rose,699,correct,NA,Apr 15 2023 11:26:12,Agnieszka,1
5eff6,5eff6_session2_lista_naming_trial073_sweet.wav,2,a,naming,73,sweet,1196,correct,NA,Apr 15 2023 11:26:20,Agnieszka,1
5eff6,5eff6_session2_lista_naming_trial074_ruler.wav,2,a,naming,74,ruler,797,correct,NA,Apr 15 2023 11:26:28,Agnieszka,1
5eff6,5eff6_session2_lista_naming_trial075_wheelbarrow.wav,2,a,naming,75,wheelbarrow,1313,correct,NA,Apr 15 2023 11:26:35,Agnieszka,1
5eff6,5eff6_session2_lista_naming_trial076_shoe.wav,2,a,naming,76,shoe,1192,correct,NA,Apr 15 2023 11:26:44,Agnieszka,1
5eff6,5eff6_session2_lista_naming_trial077_mouth.wav,2,a,naming,77,mouth,797,correct,NA,Apr 15 2023 11:26:52,Agnieszka,1
5eff6,5eff6_session2_lista_naming_trial078_mountain.wav,2,a,naming,78,mountain,928,correct,NA,Apr 15 2023 11:26:59,Agnieszka,1
5eff6,5eff6_session2_lista_naming_trial079_carrot.wav,2,a,naming,79,carrot,699,correct,NA,Apr 15 2023 11:27:06,Agnieszka,1
5eff6,5eff6_session2_lista_naming_trial080_plumber.wav,2,a,naming,80,plumber,969,correct,NA,Apr 15 2023 11:27:15,Agnieszka,1
5eff6,5eff6_session2_lista_naming_trial081_butter.wav,2,a,naming,81,butter,941,correct,NA,Apr 15 2023 11:27:22,Agnieszka,1
5eff6,5eff6_session2_lista_naming_trial082_bracelet.wav,2,a,naming,82,bracelet,1055,correct,NA,Apr 15 2023 11:27:29,Agnieszka,1
5eff6,5eff6_session2_lista_naming_trial083_dummy.wav,2,a,naming,83,dummy,766,correct,NA,Apr 15 2023 11:27:40,Agnieszka,1
5eff6,5eff6_session2_lista_naming_trial084_zip.wav,2,a,naming,84,zip,762,correct,NA,Apr 15 2023 11:27:46,Agnieszka,1
5eff6,5eff6_session2_lista_naming_trial085_bib.wav,2,a,naming,85,bib,909,correct,NA,Apr 15 2023 11:29:13,Agnieszka,1
5eff6,5eff6_session2_lista_naming_trial086_sausage.wav,2,a,naming,86,sausage,762,correct,NA,Apr 15 2023 11:29:24,Agnieszka,1
5eff6,5eff6_session2_lista_naming_trial087_limo.wav,2,a,naming,87,limo,1157,correct,NA,Apr 15 2023 11:29:35,Agnieszka,1
5eff6,5eff6_session2_lista_naming_trial088_orange.wav,2,a,naming,88,orange,778,correct,NA,Apr 15 2023 11:32:39,Agnieszka,1
5eff6,5eff6_session2_lista_naming_trial089_saw.wav,2,a,naming,89,saw,718,correct,NA,Apr 15 2023 11:32:52,Agnieszka,1
5eff6,5eff6_session2_lista_naming_trial090_wave.wav,2,a,naming,90,wave,750,correct,NA,Apr 15 2023 11:33:01,Agnieszka,1
5eff6,5eff6_session2_lista_naming_trial091_fireplace.wav,2,a,naming,91,fireplace,778,correct,NA,Apr 15 2023 11:33:15,Agnieszka,1
5eff6,5eff6_session2_lista_naming_trial092_hippo.wav,2,a,naming,92,hippo,915,correct,NA,Apr 15 2023 11:33:24,Agnieszka,1
5eff6,5eff6_session2_lista_naming_trial093_doctor.wav,2,a,naming,93,doctor,864,correct,NA,Apr 15 2023 11:33:32,Agnieszka,1
5eff6,5eff6_session2_lista_naming_trial094_star.wav,2,a,naming,94,star,606,correct,NA,Apr 15 2023 11:33:39,Agnieszka,1
5eff6,5eff6_session2_lista_naming_trial095_curtain.wav,2,a,naming,95,curtain,775,correct,NA,Apr 15 2023 11:33:48,Agnieszka,1
5eff6,5eff6_session2_lista_naming_trial096_cork.wav,2,a,naming,96,cork,804,correct,NA,Apr 15 2023 11:33:57,Agnieszka,1
5eff6,5eff6_session2_lista_naming_trial097_lighter.wav,2,a,naming,97,lighter,686,correct,NA,Apr 15 2023 11:34:09,Agnieszka,1
5eff6,5eff6_session2_lista_naming_trial098_caterpillar.wav,2,a,naming,98,caterpillar,807,correct,NA,Apr 15 2023 11:34:15,Agnieszka,1
5eff6,5eff6_session2_lista_naming_trial099_net.wav,2,a,naming,99,net,766,correct,NA,Apr 15 2023 11:34:26,Agnieszka,1
5eff6,5eff6_session2_lista_naming_trial100_soap.wav,2,a,naming,100,soap,848,correct,NA,Apr 15 2023 11:34:38,Agnieszka,1
5eff6,5eff6_session2_lista_naming_trial101_bench.wav,2,a,naming,101,bench,1065,correct,NA,Apr 15 2023 11:34:45,Agnieszka,1
5eff6,5eff6_session2_lista_naming_trial102_key.wav,2,a,naming,102,key,661,correct,NA,Apr 15 2023 11:34:52,Agnieszka,1
5eff6,5eff6_session2_lista_naming_trial103_wing.wav,2,a,naming,103,wing,820,correct,NA,Apr 15 2023 11:35:05,Agnieszka,1
5eff6,5eff6_session2_lista_naming_trial104_fence.wav,2,a,naming,104,fence,1071,correct,NA,Apr 15 2023 11:35:20,Agnieszka,1
5eff6,5eff6_session2_lista_naming_trial105_robot.wav,2,a,naming,105,robot,775,correct,NA,Apr 15 2023 11:35:27,Agnieszka,1
5eff6,5eff6_session2_lista_naming_trial106_bullet.wav,2,a,naming,106,bullet,801,correct,NA,Apr 15 2023 11:35:34,Agnieszka,1
5eff6,5eff6_session2_lista_naming_trial107_shower.wav,2,a,naming,107,shower,829,correct,NA,Apr 15 2023 11:35:41,Agnieszka,1
5eff6,5eff6_session2_lista_naming_trial108_suitcase.wav,2,a,naming,108,suitcase,794,correct,NA,Apr 15 2023 11:35:49,Agnieszka,1
5eff6,5eff6_session2_lista_naming_trial109_zebra.wav,2,a,naming,109,zebra,864,correct,NA,Apr 15 2023 11:35:55,Agnieszka,1
5eff6,5eff6_session2_lista_naming_trial110_sun.wav,2,a,naming,110,sun,750,correct,NA,Apr 15 2023 11:36:17,Agnieszka,1
5eff6,5eff6_session2_lista_naming_trial111_tattoo.wav,2,a,naming,111,tattoo,982,correct,NA,Apr 15 2023 11:36:24,Agnieszka,1
5eff6,5eff6_session2_lista_naming_trial112_rhino.wav,2,a,naming,112,rhino,1212,correct,NA,Apr 15 2023 11:36:31,Agnieszka,1
5eff6,5eff6_session2_lista_naming_trial113_kitchen.wav,2,a,naming,113,kitchen,832,correct,NA,Apr 15 2023 11:36:38,Agnieszka,1
5eff6,5eff6_session2_lista_naming_trial114_puppet.wav,2,a,naming,114,puppet,-1,wrong_word,NA,Apr 15 2023 11:36:45,Agnieszka,1
5eff6,5eff6_session2_lista_naming_trial115_train.wav,2,a,naming,115,train,989,correct,NA,Apr 15 2023 11:36:56,Agnieszka,1
5eff6,5eff6_session2_lista_naming_trial116_olive.wav,2,a,naming,116,olive,1059,correct,NA,Apr 15 2023 11:37:05,Agnieszka,1
5eff6,5eff6_session2_lista_naming_trial117_bus.wav,2,a,naming,117,bus,1380,correct,NA,Apr 15 2023 11:37:13,Agnieszka,1
5eff6,5eff6_session2_lista_naming_trial118_wall.wav,2,a,naming,118,wall,772,correct,NA,Apr 15 2023 11:37:24,Agnieszka,1
5eff6,5eff6_session2_lista_naming_trial119_map.wav,2,a,naming,119,map,769,correct,NA,Apr 15 2023 11:37:32,Agnieszka,1
5eff6,5eff6_session2_lista_naming_trial120_apple.wav,2,a,naming,120,apple,699,correct,NA,Apr 15 2023 11:37:38,Agnieszka,1
5eff6,5eff6_session2_lista_naming_trial121_tongue.wav,2,a,naming,121,tongue,-1,wrong_word,NA,Apr 15 2023 11:37:44,Agnieszka,1
5eff6,5eff6_session2_lista_naming_trial122_compass.wav,2,a,naming,122,compass,1348,correct,NA,Apr 15 2023 11:37:55,Agnieszka,1
5eff6,5eff6_session2_lista_naming_trial123_tiger.wav,2,a,naming,123,tiger,651,correct,NA,Apr 15 2023 11:38:04,Agnieszka,1
5eff6,5eff6_session2_lista_naming_trial124_squirrel.wav,2,a,naming,124,squirrel,676,correct,NA,Apr 15 2023 11:38:13,Agnieszka,1
5eff6,5eff6_session2_lista_naming_trial125_camel.wav,2,a,naming,125,camel,696,correct,NA,Apr 15 2023 11:38:21,Agnieszka,1
5eff6,5eff6_session2_lista_naming_trial126_lung.wav,2,a,naming,126,lung,976,correct,NA,Apr 15 2023 11:38:32,Agnieszka,1
5eff6,5eff6_session2_lista_naming_trial127_candle.wav,2,a,naming,127,candle,683,correct,NA,Apr 15 2023 11:38:41,Agnieszka,1
5eff6,5eff6_session2_lista_naming_trial128_potato.wav,2,a,naming,128,potato,657,correct,NA,Apr 15 2023 11:38:49,Agnieszka,1
5eff6,5eff6_session2_lista_naming_trial129_flower.wav,2,a,naming,129,flower,641,correct,NA,Apr 15 2023 11:38:57,Agnieszka,1
5eff6,5eff6_session2_lista_naming_trial130_book.wav,2,a,naming,130,book,852,correct,NA,Apr 15 2023 11:39:07,Agnieszka,1
5eff6,5eff6_session2_lista_naming_trial131_windmill.wav,2,a,naming,131,windmill,696,correct,NA,Apr 15 2023 11:39:15,Agnieszka,1
5eff6,5eff6_session2_lista_naming_trial132_flag.wav,2,a,naming,132,flag,718,correct,NA,Apr 15 2023 11:39:22,Agnieszka,1
5eff6,5eff6_session2_lista_naming_trial133_swan.wav,2,a,naming,133,swan,715,correct,NA,Apr 15 2023 11:39:28,Agnieszka,1
5eff6,5eff6_session2_lista_naming_trial134_computer.wav,2,a,naming,134,computer,1030,correct,NA,Apr 15 2023 11:39:37,Agnieszka,1
5eff6,5eff6_session2_lista_naming_trial135_fairy.wav,2,a,naming,135,fairy,1361,correct,NA,Apr 15 2023 11:39:46,Agnieszka,1
5eff6,5eff6_session2_lista_naming_trial136_tractor.wav,2,a,naming,136,tractor,692,correct,NA,Apr 15 2023 11:39:57,Agnieszka,1
5eff6,5eff6_session2_lista_naming_trial137_tree.wav,2,a,naming,137,tree,992,correct,NA,Apr 15 2023 11:40:03,Agnieszka,1
5eff6,5eff6_session2_lista_naming_trial138_judge.wav,2,a,naming,138,judge,992,correct,NA,Apr 15 2023 11:40:11,Agnieszka,1
5eff6,5eff6_session2_lista_naming_trial139_kite.wav,2,a,naming,139,kite,890,correct,NA,Apr 15 2023 11:40:22,Agnieszka,1
5eff6,5eff6_session2_lista_naming_trial140_submarine.wav,2,a,naming,140,submarine,1247,correct,NA,Apr 15 2023 11:40:29,Agnieszka,1
5eff6,5eff6_session2_lista_naming_trial141_flipper.wav,2,a,naming,141,flipper,759,correct,NA,Apr 15 2023 11:41:00,Agnieszka,1
5eff6,5eff6_session2_lista_naming_trial142_fox.wav,2,a,naming,142,fox,718,correct,NA,Apr 15 2023 11:41:07,Agnieszka,1
5eff6,5eff6_session2_lista_naming_trial143_sword.wav,2,a,naming,143,sword,715,correct,NA,Apr 15 2023 11:41:14,Agnieszka,1
5eff6,5eff6_session2_lista_naming_trial144_tunnel.wav,2,a,naming,144,tunnel,944,correct,NA,Apr 15 2023 11:41:20,Agnieszka,1
5eff6,5eff6_session2_lista_naming_trial145_lawnmower.wav,2,a,naming,145,lawnmower,871,correct,NA,Apr 15 2023 11:41:30,Agnieszka,1
5eff6,5eff6_session2_lista_naming_trial146_bike.wav,2,a,naming,146,bike,934,correct,NA,Apr 15 2023 11:41:37,Agnieszka,1
5eff6,5eff6_session2_lista_naming_trial147_elbow.wav,2,a,naming,147,elbow,750,correct,NA,Apr 15 2023 11:41:43,Agnieszka,1
5eff6,5eff6_session2_lista_naming_trial148_tambourine.wav,2,a,naming,148,tambourine,747,correct,NA,Apr 15 2023 11:41:50,Agnieszka,1
5eff6,5eff6_session2_lista_naming_trial149_peg.wav,2,a,naming,149,peg,759,correct,NA,Apr 15 2023 11:41:59,Agnieszka,1
5eff6,5eff6_session2_lista_naming_trial150_teacher.wav,2,a,naming,150,teacher,-1,wrong_word,NA,Apr 15 2023 11:42:04,Agnieszka,1
