Participant_ID,File_Name,Session,List,Type_Trial,Trial_Nbr,Target,RT,Response_Trial,Comment,Date_Correction,Assessor_Name,Processed
5ae9c,5ae9c_session2_lista_naming_trial001_comb.wav,2,a,naming,1,comb,998,correct,NA,Apr  6 2023 14:00:19,Agnieszka,1
5ae9c,5ae9c_session2_lista_naming_trial002_lamp.wav,2,a,naming,2,lamp,928,correct,NA,Apr  6 2023 14:00:26,Agnieszka,1
5ae9c,5ae9c_session2_lista_naming_trial003_zebra.wav,2,a,naming,3,zebra,810,correct,NA,Apr  6 2023 14:01:03,Agnieszka,1
5ae9c,5ae9c_session2_lista_naming_trial004_train.wav,2,a,naming,4,train,866,correct,NA,Apr  6 2023 14:01:09,Agnieszka,1
5ae9c,5ae9c_session2_lista_naming_trial005_doctor.wav,2,a,naming,5,doctor,915,correct,NA,Apr  6 2023 14:01:24,Agnieszka,1
5ae9c,5ae9c_session2_lista_naming_trial006_gym.wav,2,a,naming,6,gym,1212,correct,NA,Apr  6 2023 14:01:31,Agnieszka,1
5ae9c,5ae9c_session2_lista_naming_trial007_judge.wav,2,a,naming,7,judge,1060,correct,NA,Apr  6 2023 14:01:40,Agnieszka,1
5ae9c,5ae9c_session2_lista_naming_trial008_lighter.wav,2,a,naming,8,lighter,985,correct,NA,Apr  6 2023 14:01:47,Agnieszka,1
5ae9c,5ae9c_session2_lista_naming_trial009_ghost.wav,2,a,naming,9,ghost,826,correct,NA,Apr  6 2023 14:01:55,Agnieszka,1
5ae9c,5ae9c_session2_lista_naming_trial010_arrow.wav,2,a,naming,10,arrow,925,correct,NA,Apr  6 2023 14:02:02,Agnieszka,1
5ae9c,5ae9c_session2_lista_naming_trial011_rhino.wav,2,a,naming,11,rhino,899,correct,NA,Apr  6 2023 14:02:10,Agnieszka,1
5ae9c,5ae9c_session2_lista_naming_trial012_scissors.wav,2,a,naming,12,scissors,954,correct,NA,Apr  6 2023 14:02:19,Agnieszka,1
5ae9c,5ae9c_session2_lista_naming_trial013_shoe.wav,2,a,naming,13,shoe,925,correct,NA,Apr  6 2023 14:02:33,Agnieszka,1
5ae9c,5ae9c_session2_lista_naming_trial014_fence.wav,2,a,naming,14,fence,907,correct,NA,Apr  6 2023 14:02:43,Agnieszka,1
5ae9c,5ae9c_session2_lista_naming_trial015_puppet.wav,2,a,naming,15,puppet,1119,correct,NA,Apr  6 2023 14:02:54,Agnieszka,1
5ae9c,5ae9c_session2_lista_naming_trial016_sword.wav,2,a,naming,16,sword,877,correct,NA,Apr  6 2023 14:03:09,Agnieszka,1
5ae9c,5ae9c_session2_lista_naming_trial017_butter.wav,2,a,naming,17,butter,1038,correct,NA,Apr  6 2023 14:03:16,Agnieszka,1
5ae9c,5ae9c_session2_lista_naming_trial018_tunnel.wav,2,a,naming,18,tunnel,979,correct,NA,Apr  6 2023 14:03:27,Agnieszka,1
5ae9c,5ae9c_session2_lista_naming_trial019_camel.wav,2,a,naming,19,camel,966,correct,NA,Apr  6 2023 14:03:34,Agnieszka,1
5ae9c,5ae9c_session2_lista_naming_trial020_hat.wav,2,a,naming,20,hat,844,correct,NA,Apr  6 2023 14:03:42,Agnieszka,1
5ae9c,5ae9c_session2_lista_naming_trial021_saw.wav,2,a,naming,21,saw,995,correct,NA,Apr  6 2023 14:03:52,Agnieszka,1
5ae9c,5ae9c_session2_lista_naming_trial022_limo.wav,2,a,naming,22,limo,890,correct,NA,Apr  6 2023 14:04:01,Agnieszka,1
5ae9c,5ae9c_session2_lista_naming_trial023_cherry.wav,2,a,naming,23,cherry,897,correct,NA,Apr  6 2023 14:04:08,Agnieszka,1
5ae9c,5ae9c_session2_lista_naming_trial024_tattoo.wav,2,a,naming,24,tattoo,1415,correct,NA,Apr  6 2023 14:04:14,Agnieszka,1
5ae9c,5ae9c_session2_lista_naming_trial025_kite.wav,2,a,naming,25,kite,1154,correct,NA,Apr  6 2023 14:04:22,Agnieszka,1
5ae9c,5ae9c_session2_lista_naming_trial026_flag.wav,2,a,naming,26,flag,947,correct,NA,Apr  6 2023 14:04:39,Agnieszka,1
5ae9c,5ae9c_session2_lista_naming_trial027_apple.wav,2,a,naming,27,apple,1485,correct,NA,Apr  6 2023 14:04:46,Agnieszka,1
5ae9c,5ae9c_session2_lista_naming_trial028_fridge.wav,2,a,naming,28,fridge,985,correct,NA,Apr  6 2023 14:04:54,Agnieszka,1
5ae9c,5ae9c_session2_lista_naming_trial029_ruler.wav,2,a,naming,29,ruler,1135,correct,NA,Apr  6 2023 14:05:01,Agnieszka,1
5ae9c,5ae9c_session2_lista_naming_trial030_flipper.wav,2,a,naming,30,flipper,1066,correct,NA,Apr  6 2023 14:05:24,Agnieszka,1
5ae9c,5ae9c_session2_lista_naming_trial031_mountain.wav,2,a,naming,31,mountain,1011,correct,NA,Apr  6 2023 14:05:32,Agnieszka,1
5ae9c,5ae9c_session2_lista_naming_trial032_knife.wav,2,a,naming,32,knife,985,correct,NA,Apr  6 2023 14:05:40,Agnieszka,1
5ae9c,5ae9c_session2_lista_naming_trial033_tie.wav,2,a,naming,33,tie,938,correct,NA,Apr  6 2023 14:05:47,Agnieszka,1
5ae9c,5ae9c_session2_lista_naming_trial034_kiwi.wav,2,a,naming,34,kiwi,922,correct,NA,Apr  6 2023 14:05:57,Agnieszka,1
5ae9c,5ae9c_session2_lista_naming_trial035_magnet.wav,2,a,naming,35,magnet,973,correct,NA,Apr  6 2023 14:06:05,Agnieszka,1
5ae9c,5ae9c_session2_lista_naming_trial036_fox.wav,2,a,naming,36,fox,829,correct,NA,Apr  6 2023 14:06:15,Agnieszka,1
5ae9c,5ae9c_session2_lista_naming_trial037_teacher.wav,2,a,naming,37,teacher,1107,correct,NA,Apr  6 2023 14:06:24,Agnieszka,1
5ae9c,5ae9c_session2_lista_naming_trial038_carrot.wav,2,a,naming,38,carrot,839,correct,NA,Apr  6 2023 14:11:37,Agnieszka,1
5ae9c,5ae9c_session2_lista_naming_trial039_flower.wav,2,a,naming,39,flower,950,correct,NA,Apr  6 2023 14:11:44,Agnieszka,1
5ae9c,5ae9c_session2_lista_naming_trial040_bell.wav,2,a,naming,40,bell,1029,correct,NA,Apr  6 2023 14:11:54,Agnieszka,1
5ae9c,5ae9c_session2_lista_naming_trial041_bib.wav,2,a,naming,41,bib,1116,correct,NA,Apr  6 2023 14:12:19,Agnieszka,1
5ae9c,5ae9c_session2_lista_naming_trial042_mermaid.wav,2,a,naming,42,mermaid,1004,correct,NA,Apr  6 2023 14:12:27,Agnieszka,1
5ae9c,5ae9c_session2_lista_naming_trial043_battery.wav,2,a,naming,43,battery,1011,correct,NA,Apr  6 2023 14:12:34,Agnieszka,1
5ae9c,5ae9c_session2_lista_naming_trial044_curtain.wav,2,a,naming,44,curtain,904,correct,NA,Apr  6 2023 14:12:42,Agnieszka,1
5ae9c,5ae9c_session2_lista_naming_trial045_heel.wav,2,a,naming,45,heel,1043,correct,NA,Apr  6 2023 14:12:49,Agnieszka,1
5ae9c,5ae9c_session2_lista_naming_trial046_arm.wav,2,a,naming,46,arm,922,correct,NA,Apr  6 2023 14:12:56,Agnieszka,1
5ae9c,5ae9c_session2_lista_naming_trial047_cork.wav,2,a,naming,47,cork,932,correct,NA,Apr  6 2023 14:13:03,Agnieszka,1
5ae9c,5ae9c_session2_lista_naming_trial048_skirt.wav,2,a,naming,48,skirt,883,correct,NA,Apr  6 2023 14:13:18,Agnieszka,1
5ae9c,5ae9c_session2_lista_naming_trial049_orange.wav,2,a,naming,49,orange,969,correct,NA,Apr  6 2023 14:13:27,Agnieszka,1
5ae9c,5ae9c_session2_lista_naming_trial050_olive.wav,2,a,naming,50,olive,1147,correct,NA,Apr  6 2023 14:13:35,Agnieszka,1
5ae9c,5ae9c_session2_lista_naming_trial051_bus.wav,2,a,naming,51,bus,1208,correct,NA,Apr  6 2023 14:13:44,Agnieszka,1
5ae9c,5ae9c_session2_lista_naming_trial052_snake.wav,2,a,naming,52,snake,864,correct,NA,Apr  6 2023 14:13:59,Agnieszka,1
5ae9c,5ae9c_session2_lista_naming_trial053_bear.wav,2,a,naming,53,bear,1047,correct,NA,Apr  6 2023 14:14:07,Agnieszka,1
5ae9c,5ae9c_session2_lista_naming_trial054_hippo.wav,2,a,naming,54,hippo,1253,correct,NA,Apr  6 2023 14:14:17,Agnieszka,1
5ae9c,5ae9c_session2_lista_naming_trial055_bench.wav,2,a,naming,55,bench,1078,correct,NA,Apr  6 2023 14:14:25,Agnieszka,1
5ae9c,5ae9c_session2_lista_naming_trial056_kangaroo.wav,2,a,naming,56,kangaroo,899,correct,NA,Apr  6 2023 14:14:32,Agnieszka,1
5ae9c,5ae9c_session2_lista_naming_trial057_windmill.wav,2,a,naming,57,windmill,909,correct,NA,Apr  6 2023 14:14:39,Agnieszka,1
5ae9c,5ae9c_session2_lista_naming_trial058_shield.wav,2,a,naming,58,shield,982,correct,NA,Apr  6 2023 14:14:49,Agnieszka,1
5ae9c,5ae9c_session2_lista_naming_trial059_potato.wav,2,a,naming,59,potato,1262,correct,NA,Apr  6 2023 14:14:58,Agnieszka,1
5ae9c,5ae9c_session2_lista_naming_trial060_ear.wav,2,a,naming,60,ear,944,correct,NA,Apr  6 2023 14:15:07,Agnieszka,1
5ae9c,5ae9c_session2_lista_naming_trial061_nest.wav,2,a,naming,61,nest,1055,correct,NA,Apr  6 2023 14:15:14,Agnieszka,1
5ae9c,5ae9c_session2_lista_naming_trial062_swan.wav,2,a,naming,62,swan,890,correct,NA,Apr  6 2023 14:15:23,Agnieszka,1
5ae9c,5ae9c_session2_lista_naming_trial063_map.wav,2,a,naming,63,map,1038,correct,NA,Apr  6 2023 14:15:29,Agnieszka,1
5ae9c,5ae9c_session2_lista_naming_trial064_lighthouse.wav,2,a,naming,64,lighthouse,1027,correct,NA,Apr  6 2023 14:15:36,Agnieszka,1
5ae9c,5ae9c_session2_lista_naming_trial065_pencil.wav,2,a,naming,65,pencil,976,correct,NA,Apr  6 2023 14:15:45,Agnieszka,1
5ae9c,5ae9c_session2_lista_naming_trial066_tractor.wav,2,a,naming,66,tractor,922,correct,NA,Apr  6 2023 14:15:54,Agnieszka,1
5ae9c,5ae9c_session2_lista_naming_trial067_dress.wav,2,a,naming,67,dress,1027,correct,NA,Apr  6 2023 14:16:01,Agnieszka,1
5ae9c,5ae9c_session2_lista_naming_trial068_owl.wav,2,a,naming,68,owl,998,correct,NA,Apr  6 2023 14:16:10,Agnieszka,1
5ae9c,5ae9c_session2_lista_naming_trial069_jellyfish.wav,2,a,naming,69,jellyfish,1154,correct,NA,Apr  6 2023 14:16:21,Agnieszka,1
5ae9c,5ae9c_session2_lista_naming_trial070_bracelet.wav,2,a,naming,70,bracelet,1081,correct,NA,Apr  6 2023 14:16:28,Agnieszka,1
5ae9c,5ae9c_session2_lista_naming_trial071_castle.wav,2,a,naming,71,castle,1022,correct,NA,Apr  6 2023 14:16:35,Agnieszka,1
5ae9c,5ae9c_session2_lista_naming_trial072_clown.wav,2,a,naming,72,clown,973,correct,NA,Apr  6 2023 14:16:42,Agnieszka,1
5ae9c,5ae9c_session2_lista_naming_trial073_bullet.wav,2,a,naming,73,bullet,1750,correct,NA,Apr  6 2023 14:16:48,Agnieszka,1
5ae9c,5ae9c_session2_lista_naming_trial074_circle.wav,2,a,naming,74,circle,954,correct,NA,Apr  6 2023 14:17:05,Agnieszka,1
5ae9c,5ae9c_session2_lista_naming_trial075_tap.wav,2,a,naming,75,tap,915,correct,NA,Apr  6 2023 14:17:13,Agnieszka,1
5ae9c,5ae9c_session2_lista_naming_trial076_sun.wav,2,a,naming,76,sun,813,correct,NA,Apr  6 2023 14:17:28,Agnieszka,1
5ae9c,5ae9c_session2_lista_naming_trial077_glove.wav,2,a,naming,77,glove,1094,correct,NA,Apr  6 2023 14:17:35,Agnieszka,1
5ae9c,5ae9c_session2_lista_naming_trial078_drum.wav,2,a,naming,78,drum,979,correct,NA,Apr  6 2023 14:17:42,Agnieszka,1
5ae9c,5ae9c_session2_lista_naming_trial079_helicopter.wav,2,a,naming,79,helicopter,890,correct,NA,Apr  6 2023 14:17:48,Agnieszka,1
5ae9c,5ae9c_session2_lista_naming_trial080_suitcase.wav,2,a,naming,80,suitcase,904,correct,NA,Apr  6 2023 14:17:57,Agnieszka,1
5ae9c,5ae9c_session2_lista_naming_trial081_squirrel.wav,2,a,naming,81,squirrel,842,correct,NA,Apr  6 2023 14:18:04,Agnieszka,1
5ae9c,5ae9c_session2_lista_naming_trial082_drawer.wav,2,a,naming,82,drawer,1122,correct,NA,Apr  6 2023 14:18:10,Agnieszka,1
5ae9c,5ae9c_session2_lista_naming_trial083_soap.wav,2,a,naming,83,soap,1036,correct,NA,Apr  6 2023 14:18:21,Agnieszka,1
5ae9c,5ae9c_session2_lista_naming_trial084_bike.wav,2,a,naming,84,bike,-1,wrong_word,NA,Apr  6 2023 14:18:27,Agnieszka,1
5ae9c,5ae9c_session2_lista_naming_trial085_koala.wav,2,a,naming,85,koala,1043,correct,NA,Apr  6 2023 14:18:34,Agnieszka,1
5ae9c,5ae9c_session2_lista_naming_trial086_dummy.wav,2,a,naming,86,dummy,-1,wrong_word,NA,Apr  6 2023 14:18:46,Agnieszka,1
5ae9c,5ae9c_session2_lista_naming_trial087_avocado.wav,2,a,naming,87,avocado,1425,correct,NA,Apr  6 2023 14:18:54,Agnieszka,1
5ae9c,5ae9c_session2_lista_naming_trial088_robot.wav,2,a,naming,88,robot,1259,correct,NA,Apr  6 2023 14:19:02,Agnieszka,1
5ae9c,5ae9c_session2_lista_naming_trial089_wing.wav,2,a,naming,89,wing,966,correct,NA,Apr  6 2023 14:19:09,Agnieszka,1
5ae9c,5ae9c_session2_lista_naming_trial090_plumber.wav,2,a,naming,90,plumber,1196,uncertain,clearing throat before speaking,Apr  6 2023 14:19:27,Agnieszka,1
5ae9c,5ae9c_session2_lista_naming_trial091_wheelbarrow.wav,2,a,naming,91,wheelbarrow,1135,correct,NA,Apr  6 2023 14:19:35,Agnieszka,1
5ae9c,5ae9c_session2_lista_naming_trial092_tray.wav,2,a,naming,92,tray,960,correct,NA,Apr  6 2023 14:19:42,Agnieszka,1
5ae9c,5ae9c_session2_lista_naming_trial093_lung.wav,2,a,naming,93,lung,1634,correct,NA,Apr  6 2023 14:19:49,Agnieszka,1
5ae9c,5ae9c_session2_lista_naming_trial094_tomato.wav,2,a,naming,94,tomato,1094,correct,NA,Apr  6 2023 14:19:58,Agnieszka,1
5ae9c,5ae9c_session2_lista_naming_trial095_triangle.wav,2,a,naming,95,triangle,1266,correct,NA,Apr  6 2023 14:20:07,Agnieszka,1
5ae9c,5ae9c_session2_lista_naming_trial096_pineapple.wav,2,a,naming,96,pineapple,1066,correct,NA,Apr  6 2023 14:20:15,Agnieszka,1
5ae9c,5ae9c_session2_lista_naming_trial097_rocket.wav,2,a,naming,97,rocket,1138,correct,NA,Apr  6 2023 14:20:22,Agnieszka,1
5ae9c,5ae9c_session2_lista_naming_trial098_bull.wav,2,a,naming,98,bull,1199,correct,NA,Apr  6 2023 14:20:29,Agnieszka,1
5ae9c,5ae9c_session2_lista_naming_trial099_tree.wav,2,a,naming,99,tree,1030,correct,NA,Apr  6 2023 14:20:36,Agnieszka,1
5ae9c,5ae9c_session2_lista_naming_trial100_peg.wav,2,a,naming,100,peg,944,correct,NA,Apr  6 2023 14:20:42,Agnieszka,1
5ae9c,5ae9c_session2_lista_naming_trial101_doughnut.wav,2,a,naming,101,doughnut,1090,correct,NA,Apr  6 2023 14:20:50,Agnieszka,1
5ae9c,5ae9c_session2_lista_naming_trial102_crab.wav,2,a,naming,102,crab,931,correct,NA,Apr  6 2023 14:20:56,Agnieszka,1
5ae9c,5ae9c_session2_lista_naming_trial103_lawnmower.wav,2,a,naming,103,lawnmower,934,correct,NA,Apr  6 2023 14:21:05,Agnieszka,1
5ae9c,5ae9c_session2_lista_naming_trial104_dice.wav,2,a,naming,104,dice,979,correct,NA,Apr  6 2023 14:21:11,Agnieszka,1
5ae9c,5ae9c_session2_lista_naming_trial105_compass.wav,2,a,naming,105,compass,1001,correct,NA,Apr  6 2023 14:21:19,Agnieszka,1
5ae9c,5ae9c_session2_lista_naming_trial106_sausage.wav,2,a,naming,106,sausage,910,correct,NA,Apr  6 2023 14:21:28,Agnieszka,1
5ae9c,5ae9c_session2_lista_naming_trial107_tongue.wav,2,a,naming,107,tongue,925,correct,NA,Apr  6 2023 14:21:35,Agnieszka,1
5ae9c,5ae9c_session2_lista_naming_trial108_bottle.wav,2,a,naming,108,bottle,938,correct,NA,Apr  6 2023 14:21:42,Agnieszka,1
5ae9c,5ae9c_session2_lista_naming_trial109_boxer.wav,2,a,naming,109,boxer,1285,correct,NA,Apr  6 2023 14:21:49,Agnieszka,1
5ae9c,5ae9c_session2_lista_naming_trial110_mouth.wav,2,a,naming,110,mouth,1116,correct,NA,Apr  6 2023 14:21:59,Agnieszka,1
5ae9c,5ae9c_session2_lista_naming_trial111_star.wav,2,a,naming,111,star,985,correct,NA,Apr  6 2023 14:22:09,Agnieszka,1
5ae9c,5ae9c_session2_lista_naming_trial112_elbow.wav,2,a,naming,112,elbow,1231,correct,NA,Apr  6 2023 14:22:16,Agnieszka,1
5ae9c,5ae9c_session2_lista_naming_trial113_bone.wav,2,a,naming,113,bone,1153,correct,NA,Apr  6 2023 14:22:22,Agnieszka,1
5ae9c,5ae9c_session2_lista_naming_trial114_goat.wav,2,a,naming,114,goat,1285,correct,NA,Apr  6 2023 14:22:30,Agnieszka,1
5ae9c,5ae9c_session2_lista_naming_trial115_tambourine.wav,2,a,naming,115,tambourine,1205,correct,NA,Apr  6 2023 14:22:41,Agnieszka,1
5ae9c,5ae9c_session2_lista_naming_trial116_island.wav,2,a,naming,116,island,1227,correct,NA,Apr  6 2023 14:22:49,Agnieszka,1
5ae9c,5ae9c_session2_lista_naming_trial117_fork.wav,2,a,naming,117,fork,1116,uncertain,bad quality,Apr  6 2023 14:23:13,Agnieszka,1
5ae9c,5ae9c_session2_lista_naming_trial118_suit.wav,2,a,naming,118,suit,954,correct,NA,Apr  6 2023 14:23:26,Agnieszka,1
5ae9c,5ae9c_session2_lista_naming_trial119_book.wav,2,a,naming,119,book,1208,correct,NA,Apr  6 2023 14:23:36,Agnieszka,1
5ae9c,5ae9c_session2_lista_naming_trial120_basket.wav,2,a,naming,120,basket,1132,correct,NA,Apr  6 2023 14:23:47,Agnieszka,1
5ae9c,5ae9c_session2_lista_naming_trial121_pocket.wav,2,a,naming,121,pocket,1275,correct,NA,Apr  6 2023 14:24:01,Agnieszka,1
5ae9c,5ae9c_session2_lista_naming_trial122_net.wav,2,a,naming,122,net,960,correct,NA,Apr  6 2023 14:24:57,Agnieszka,1
5ae9c,5ae9c_session2_lista_naming_trial123_thumb.wav,2,a,naming,123,thumb,1126,correct,NA,Apr  6 2023 14:25:13,Agnieszka,1
5ae9c,5ae9c_session2_lista_naming_trial124_wave.wav,2,a,naming,124,wave,925,correct,NA,Apr  6 2023 14:25:19,Agnieszka,1
5ae9c,5ae9c_session2_lista_naming_trial125_queen.wav,2,a,naming,125,queen,1205,correct,NA,Apr  6 2023 14:25:26,Agnieszka,1
5ae9c,5ae9c_session2_lista_naming_trial126_whale.wav,2,a,naming,126,whale,1004,correct,NA,Apr  6 2023 14:25:32,Agnieszka,1
5ae9c,5ae9c_session2_lista_naming_trial127_donkey.wav,2,a,naming,127,donkey,1113,correct,NA,Apr  6 2023 14:25:38,Agnieszka,1
5ae9c,5ae9c_session2_lista_naming_trial128_candle.wav,2,a,naming,128,candle,1291,correct,NA,Apr  6 2023 14:25:44,Agnieszka,1
5ae9c,5ae9c_session2_lista_naming_trial129_beak.wav,2,a,naming,129,beak,1326,correct,NA,Apr  6 2023 14:31:25,Agnieszka,1
5ae9c,5ae9c_session2_lista_naming_trial130_coat.wav,2,a,naming,130,coat,1062,correct,NA,Apr  6 2023 14:31:35,Agnieszka,1
5ae9c,5ae9c_session2_lista_naming_trial131_computer.wav,2,a,naming,131,computer,1151,correct,NA,Apr  6 2023 14:31:58,Agnieszka,1
5ae9c,5ae9c_session2_lista_naming_trial132_kitchen.wav,2,a,naming,132,kitchen,1333,correct,NA,Apr  6 2023 14:32:08,Agnieszka,1
5ae9c,5ae9c_session2_lista_naming_trial133_butterfly.wav,2,a,naming,133,butterfly,1008,correct,NA,Apr  6 2023 14:32:22,Agnieszka,1
5ae9c,5ae9c_session2_lista_naming_trial134_medal.wav,2,a,naming,134,medal,988,correct,NA,Apr  6 2023 14:32:35,Agnieszka,1
5ae9c,5ae9c_session2_lista_naming_trial135_zip.wav,2,a,naming,135,zip,922,correct,NA,Apr  6 2023 14:32:48,Agnieszka,1
5ae9c,5ae9c_session2_lista_naming_trial136_wall.wav,2,a,naming,136,wall,883,correct,NA,Apr  6 2023 14:33:02,Agnieszka,1
5ae9c,5ae9c_session2_lista_naming_trial137_submarine.wav,2,a,naming,137,submarine,1353,correct,NA,Apr  6 2023 14:33:33,Agnieszka,1
5ae9c,5ae9c_session2_lista_naming_trial138_fairy.wav,2,a,naming,138,fairy,1320,correct,NA,Apr  6 2023 14:33:57,Agnieszka,1
5ae9c,5ae9c_session2_lista_naming_trial139_sweet.wav,2,a,naming,139,sweet,1011,correct,NA,Apr  6 2023 14:34:07,Agnieszka,1
5ae9c,5ae9c_session2_lista_naming_trial140_shower.wav,2,a,naming,140,shower,915,correct,NA,Apr  6 2023 14:34:17,Agnieszka,1
5ae9c,5ae9c_session2_lista_naming_trial141_key.wav,2,a,naming,141,key,1052,correct,NA,Apr  6 2023 14:34:26,Agnieszka,1
5ae9c,5ae9c_session2_lista_naming_trial142_caterpillar.wav,2,a,naming,142,caterpillar,938,correct,NA,Apr  6 2023 14:34:36,Agnieszka,1
5ae9c,5ae9c_session2_lista_naming_trial143_rose.wav,2,a,naming,143,rose,1027,correct,NA,Apr  6 2023 14:34:48,Agnieszka,1
5ae9c,5ae9c_session2_lista_naming_trial144_fireplace.wav,2,a,naming,144,fireplace,1227,correct,NA,Apr  6 2023 14:34:58,Agnieszka,1
5ae9c,5ae9c_session2_lista_naming_trial145_pear.wav,2,a,naming,145,pear,1010,correct,NA,Apr  6 2023 14:35:09,Agnieszka,1
5ae9c,5ae9c_session2_lista_naming_trial146_pepper.wav,2,a,naming,146,pepper,1071,correct,NA,Apr  6 2023 14:35:19,Agnieszka,1
5ae9c,5ae9c_session2_lista_naming_trial147_rabbit.wav,2,a,naming,147,rabbit,931,correct,NA,Apr  6 2023 14:35:30,Agnieszka,1
5ae9c,5ae9c_session2_lista_naming_trial148_onion.wav,2,a,naming,148,onion,982,correct,NA,Apr  6 2023 14:35:39,Agnieszka,1
5ae9c,5ae9c_session2_lista_naming_trial149_tiger.wav,2,a,naming,149,tiger,1075,correct,NA,Apr  6 2023 14:35:51,Agnieszka,1
5ae9c,5ae9c_session2_lista_naming_trial150_pipe.wav,2,a,naming,150,pipe,1100,correct,NA,Apr  6 2023 14:36:02,Agnieszka,1
